#timestamp [ns],w_RS_S_x [rad s^-1],w_RS_S_y [rad s^-1],w_RS_S_z [rad s^-1],a_RS_S_x [m s^-2],a_RS_S_y [m s^-2],a_RS_S_z [m s^-2]
1711569291678341150,0.0,0.00174532923847,0.00523598771542,0.362498348552,-9.67881529283,-0.9406036804919999
1711569291680844069,0.0,0.0,0.00523598771542,0.364594653359,-9.68476347094,-0.940973660993
1711569291683346748,0.0,-0.00174532923847,0.00349065847695,0.38678965127899995,-9.71435699136,-0.9212447772840001
1711569291685849667,0.00174532923847,-0.00349065847695,0.00174532923847,0.408986763612,-9.743953331010001,-0.901514014097
1711569291688352346,0.0,-0.00174532923847,0.00349065847695,0.431181761532,-9.77354685143,-0.881785130388
1711569291690855265,-0.00174532923847,-0.00174532923847,0.00523598771542,0.425191882938,-9.761533504680001,-0.892926020576
1711569291693357944,-0.00349065847695,0.0,0.00523598771542,0.395596430347,-9.714673869439999,-0.929920355052
1711569291695860863,-0.00349065847695,-0.00174532923847,0.00349065847695,0.365998158337,-9.6678097701,-0.966918213804
1711569291698363543,0.0,-0.00174532923847,0.0,0.33640270574600006,-9.620950134860001,-1.00391254828
1711569291700866461,0.00523598771542,0.0,0.00174532923847,0.325020570476,-9.62172664582,-0.9904681371520001
1711569291703369141,0.008726646192370001,0.0,0.00349065847695,0.327486618114,-9.65871736039,-0.938681031832
1711569291705872059,0.0069813169539,0.0,0.00523598771542,0.329952900681,-9.69571159889,-0.886888992998
1711569291708374739,0.00174532923847,-0.00174532923847,0.00174532923847,0.332418948319,-9.73270231346,-0.8351018876790001
1711569291710877657,0.0,-0.00349065847695,0.0,0.339262248693,-9.741973258360002,-0.819788070141
1711569291713380337,-0.00349065847695,-0.00523598771542,0.0,0.349125745361,-9.73210977668,-0.829651566808
1711569291715883255,-0.00174532923847,-0.00349065847695,0.00349065847695,0.358990181678,-9.72224535536,-0.839516003125
1711569291718385935,0.0,-0.00349065847695,0.00349065847695,0.368853678345,-9.71238187368,-0.8493794997930001
1711569291720888853,0.00349065847695,-0.00174532923847,0.00174532923847,0.368103278816,-9.70554994727,-0.844079699398
1711569291723391533,0.00349065847695,-0.00174532923847,0.0,0.360705128408,-9.700617852,-0.829283398581
1711569291725894451,0.0,0.0,0.0,0.353306273212,-9.695685286860002,-0.8144856881899999
1711569291728397131,0.0,0.0,0.0,0.345908122804,-9.69075319159,-0.7996893873729999
1711569291730900049,0.0,0.0,-0.00174532923847,0.35897619454199997,-9.69841566396,-0.784892572577
1711569291733402729,0.00174532923847,0.0,-0.00523598771542,0.383634345541,-9.713210532080002,-0.770097674484
1711569291735905647,0.0,0.0,-0.00349065847695,0.408294845605,-9.728006809630001,-0.7553013669509999
1711569291738408566,0.0,0.0,0.0,0.43295534567,-9.74280308719,-0.7405050594179999
1711569291740911484,-0.00174532923847,0.0,0.00174532923847,0.43477258351099995,-9.73475613723,-0.7403937136100001
1711569291743414164,-0.00174532923847,-0.00174532923847,0.00174532923847,0.424909323111,-9.71502964641,-0.747791162656
1711569291745917082,0.0,-0.00174532923847,0.00174532923847,0.41504512308499997,-9.69530127633,-0.7551893164219999
1711569291748419762,0.0,-0.00174532923847,0.0,0.40518186268600004,-9.675574785510001,-0.7625867654690001
1711569291750922680,0.00174532923847,-0.00174532923847,-0.00174532923847,0.402072638273,-9.67104524929,-0.756474158895
1711569291753425360,0.00174532923847,-0.00174532923847,-0.00523598771542,0.402072638273,-9.67351129693,-0.7441439057160001
1711569291755928278,0.0,-0.00174532923847,-0.00523598771542,0.402072638273,-9.6759775795,-0.731812477891
1711569291758430958,-0.00174532923847,-0.00174532923847,-0.00523598771542,0.402072638273,-9.678443627130001,-0.719482224713
1711569291760933876,-0.00349065847695,-0.00174532923847,-0.00349065847695,0.41255323334700006,-9.68615003189,-0.71937898676
1711569291763436556,-0.00174532923847,-0.00174532923847,-0.00349065847695,0.42734812394599997,-9.6960132773,-0.724310609466
1711569291765939474,0.0,0.0,0.0,0.44214442398500003,-9.70587746234,-0.7292427019840001
1711569291768442154,0.0,0.0,0.0,0.45693931458400006,-9.71574070775,-0.73417432469
1711569291770945072,-0.00174532923847,0.0,0.00174532923847,0.450088140258,-9.70936920365,-0.7481271787379999
1711569291773447752,-0.00349065847695,0.0,0.0,0.43529147747599994,-9.69703867007,-0.76538995573
1711569291775950670,-0.00174532923847,0.0,0.0,0.42049340508599997,-9.68470696182,-0.7826543772669999
1711569291778453588,0.0,0.0,-0.00174532923847,0.405695332695,-9.67237525356,-0.799918798803
1711569291780956268,0.00174532923847,0.0,0.0,0.407658822324,-9.6805286916,-0.806007334124
1711569291783459187,0.0,-0.00174532923847,0.00174532923847,0.415056798881,-9.69532461473,-0.8084733213140001
1711569291785961866,-0.00174532923847,-0.00174532923847,0.00349065847695,0.422454070734,-9.71011912847,-0.810939073603
1711569291788464785,-0.00349065847695,-0.00349065847695,0.00174532923847,0.42985204729099996,-9.7249150516,-0.813405060792
1711569291790967464,-0.00523598771542,-0.00523598771542,0.0,0.435330961422,-9.72435778538,-0.823547829683
1711569291793470383,-0.00349065847695,-0.00523598771542,0.0,0.440263652218,-9.71942510208,-0.8358795679180001
1711569291795974016,0.0,-0.00349065847695,0.0,0.445197752624,-9.714491009169999,-0.848214830178
1711569291798475981,0.00174532923847,-0.00174532923847,0.00349065847695,0.450128563943,-9.709560205339999,-0.8605418697130001
1711569291800978661,0.00174532923847,-0.00174532923847,0.0069813169539,0.441218895984,-9.71253766957,-0.870894788665
1711569291803481579,0.0,-0.00349065847695,0.0069813169539,0.428887460665,-9.7174702347,-0.8807599339219999
1711569291805984259,0.0,-0.00349065847695,0.00523598771542,0.416557199992,-9.72240232998,-0.890624139463
1711569291808488369,-0.00349065847695,-0.00523598771542,0.00349065847695,0.404219891442,-9.727337244400001,-0.9004939833040001
1711569291810990095,-0.00523598771542,-0.00349065847695,0.00349065847695,0.40614357050899996,-9.7281961441,-0.904247248342
1711569291813493967,-0.00523598771542,-0.00349065847695,0.00349065847695,0.411077549775,-9.7281961441,-0.9067142342260001
1711569291815996647,-0.00174532923847,-0.00174532923847,0.00174532923847,0.41600917997500003,-9.7281961441,-0.909180045579
1711569291818499565,0.0,-0.00174532923847,0.00174532923847,0.420941279988,-9.7281961441,-0.9116460918379999
1711569291821002245,0.00174532923847,-0.00174532923847,0.00523598771542,0.398657562222,-9.70307432555,-0.9287663227949999
1711569291823505163,0.0,-0.00174532923847,0.00523598771542,0.371531008403,-9.673481770439999,-0.9484947228470001
1711569291826007843,-0.00349065847695,-0.00523598771542,0.00523598771542,0.34440703855899996,-9.6438920342,-0.9682212436450001
1711569291828510761,-0.00349065847695,-0.00523598771542,0.00349065847695,0.31728048474,-9.614299479089999,-0.987949643697
1711569291831013441,0.0,-0.00174532923847,0.00174532923847,0.333167928955,-9.64922696525,-0.956062475467
1711569291833516359,0.00349065847695,0.0,0.00174532923847,0.35536238276,-9.69361603773,-0.9166056753640001
1711569291836019039,0.00523598771542,0.0,0.00349065847695,0.37755472240500004,-9.738000881880001,-0.877152633766
1711569291838521957,0.0,0.0,0.00349065847695,0.39974917621100003,-9.782389954369998,-0.837695833663
1711569291841024637,-0.00174532923847,-0.00349065847695,0.0,0.397657332889,-9.760544889010001,-0.8446034952439999
1711569291843526602,-0.00349065847695,-0.00174532923847,0.0,0.39272711212899997,-9.730963369680001,-0.8569290433969999
1711569291846030474,0.0,0.0,0.0,0.38779313286300005,-9.701359299149999,-0.8692639878139999
1711569291848533154,0.00174532923847,0.0,0.0,0.38286150266400004,-9.67176932312,-0.881593059566
1711569291851036072,0.00523598771542,0.00174532923847,0.00174532923847,0.35980963645099995,-9.6716213126,-0.8690086471170001
1711569291853538752,0.00523598771542,0.00174532923847,0.00349065847695,0.33515147796,-9.67408712396,-0.8542137640109999
1711569291856041670,0.00349065847695,0.0,0.00174532923847,0.310490970401,-9.67655317022,-0.839417471467
1711569291858544350,0.00174532923847,0.0,0.0,0.285832811909,-9.67901898157,-0.824622588362
1711569291861047268,0.00174532923847,0.0,-0.00349065847695,0.326189780912,-9.697739368739999,-0.805182170186
1711569291863549948,0.00174532923847,0.00174532923847,-0.0069813169539,0.370574460203,-9.71746585957,-0.785455634401
1711569291866052866,0.00174532923847,0.0,-0.0069813169539,0.414963367814,-9.73719422964,-0.76572721936
1711569291868555546,0.0,0.0,-0.00523598771542,0.459348047104,-9.75692072046,-0.746000683574
1711569291871058702,-0.00174532923847,-0.00174532923847,-0.00174532923847,0.446634598883,-9.73857883632,-0.75720364252
1711569291873561382,-0.00349065847695,-0.00174532923847,0.0,0.431837936101,-9.71884998259,-0.76953420608
1711569291876064301,-0.00349065847695,0.0,0.0,0.417039863711,-9.699119249389998,-0.781865944315
1711569291878566980,-0.00174532923847,0.0,0.0,0.402243200929,-9.679390395650001,-0.794196507875
1711569291881069899,0.0,0.0,0.0,0.402072638273,-9.68160083531,-0.7772736206440001
1711569291883572578,0.0,0.0,0.0,0.402072638273,-9.684066882949999,-0.7600112572
1711569291886075497,0.00174532923847,0.0,-0.00174532923847,0.402072638273,-9.686533165510001,-0.742747249252
1711569291888578176,0.0,-0.00174532923847,-0.00174532923847,0.4022502277,-9.68896961212,-0.725662495179
1711569291891081095,0.0,-0.00349065847695,-0.00349065847695,0.41704652773900003,-9.68896961212,-0.72319644892
1711569291893583775,0.0,-0.00174532923847,-0.00523598771542,0.43184141833800005,-9.68896961212,-0.720730637567
1711569291896086693,0.0,0.0,-0.00349065847695,0.446637718377,-9.68896961212,-0.7182645913079999
1711569291898589373,0.0,0.0,-0.00174532923847,0.46047912301700006,-9.6888829317,-0.716665585228
1711569291901092291,0.0,0.0,0.0,0.448148876732,-9.68641688544,-0.7388600315389999
1711569291903594971,0.0,-0.00174532923847,0.0,0.43581980498000006,-9.683951074089999,-0.761052363691
1711569291906097889,-0.00349065847695,-0.00523598771542,0.0,0.423489558694,-9.68148502783,-0.783246810002
1711569291908600569,-0.00349065847695,-0.0069813169539,0.0,0.41231063078900004,-9.68016941412,-0.803713946392
1711569291911103487,0.0,-0.00523598771542,0.00174532923847,0.41970948598499996,-9.69743339208,-0.796315083701
1711569291913606167,0.00174532923847,-0.00174532923847,0.00174532923847,0.42710763639300003,-9.71469572555,-0.788916925798
1711569291916109085,0.00174532923847,0.0,0.00349065847695,0.434506491589,-9.73195970352,-0.781518063108
1711569291918612003,0.0,0.0,0.00174532923847,0.440895142026,-9.74619306121,-0.7767457577410001
1711569291921114683,-0.00349065847695,0.0,0.0,0.435962921099,-9.72646420748,-0.801406869872
1711569291923617601,-0.00349065847695,0.00174532923847,0.0,0.431030230302,-9.70673347428,-0.826070331351
1711569291926120281,-0.00349065847695,0.0,0.0,0.426098009375,-9.687004620549999,-0.8507314434819999
1711569291928623199,0.0,0.0,0.0,0.421946229735,-9.671438705149999,-0.872531531848
1711569291931125879,0.0,-0.00174532923847,0.0,0.424412225792,-9.691166613650001,-0.8700655432850001
1711569291933628798,0.0,-0.00523598771542,0.00174532923847,0.426878456772,-9.71089640154,-0.8675993197990001
1711569291936131477,0.0,-0.00523598771542,0.00174532923847,0.42934445282899997,-9.73062431004,-0.865133331237
1711569291938634634,-0.00174532923847,-0.00523598771542,0.00349065847695,0.430219493344,-9.74589975917,-0.865213123681
1711569291941137314,-0.00349065847695,-0.00349065847695,0.00349065847695,0.420356934189,-9.73110595415,-0.882472592836
1711569291943640232,-0.00174532923847,-0.00174532923847,0.00349065847695,0.41049343547399997,-9.7163107398,-0.89973370622
1711569291946142912,0.0,-0.00349065847695,0.00349065847695,0.40063087631899996,-9.70151693479,-0.9169931753749999
1711569291948645830,0.0,-0.00349065847695,0.00523598771542,0.39151664121299995,-9.68934427868,-0.931631743908
1711569291951148510,0.0,-0.00349065847695,0.0069813169539,0.386585129142,-9.69181003097,-0.931631743908
1711569291953651428,0.0,-0.00349065847695,0.0069813169539,0.38165314726899996,-9.694276018160002,-0.931631743908
1711569291956154108,0.0,-0.00349065847695,0.0069813169539,0.37672163519699997,-9.69674177045,-0.931631743908
1711569291958657026,-0.00349065847695,-0.00523598771542,0.00523598771542,0.373947281894,-9.69877624512,-0.930768674892
1711569291961159706,-0.00174532923847,-0.00523598771542,0.00349065847695,0.38134490814099997,-9.69877624512,-0.925836919065
1711569291963662624,0.0,-0.00349065847695,0.00174532923847,0.388743239126,-9.69877624512,-0.920904693412
1711569291966165304,0.0,-0.00174532923847,0.0,0.396140865374,-9.69877624512,-0.9159729375839999
1711569291968668222,0.0,-0.00523598771542,0.00174532923847,0.39816200604699997,-9.69877624512,-0.910551930484
1711569291971170902,0.0,-0.00523598771542,0.00174532923847,0.37843595776199995,-9.69877624512,-0.9031546586310001
1711569291973673820,-0.00174532923847,-0.0069813169539,0.00349065847695,0.35870803027,-9.69877624512,-0.8957566820739999
1711569291976176500,-0.00174532923847,-0.00523598771542,0.00174532923847,0.338981981985,-9.69877624512,-0.8883594102210001
1711569291978679419,-0.00174532923847,0.0,0.00174532923847,0.32525651871,-9.699321932430001,-0.880961394451
1711569291981182337,0.0,0.0,0.0,0.332654664983,-9.70178797869,-0.8735632406839999
1711569291983685017,0.0,0.0,0.0,0.34005210653499995,-9.70425379005,-0.866165791638
1711569291986187935,0.0,0.0,0.0,0.347450252808,-9.70671983631,-0.8587676378720001
1711569291988690615,0.0,-0.00174532923847,0.0,0.353642155267,-9.70918564766,-0.8477535678810001
1711569291991194487,0.0,-0.00349065847695,-0.00174532923847,0.356109148648,-9.71165263354,-0.825550664932
1711569291993696213,0.0,-0.00174532923847,0.0,0.35857402786700004,-9.71411750527,-0.803366789419
1711569291996199131,0.00349065847695,-0.00174532923847,0.0,0.36104008162100004,-9.71658355153,-0.781172343108
1711569291998701811,0.00349065847695,-0.00174532923847,0.0,0.367465017138,-9.71772965933,-0.7649186849590001
1711569292001205921,0.00174532923847,-0.00349065847695,-0.00349065847695,0.384735592665,-9.71526243854,-0.7649186849590001
1711569292003707409,0.0,-0.00174532923847,-0.00523598771542,0.40198808037600003,-9.712797801719999,-0.7649186849590001
1711569292006210566,0.0,0.0,-0.00349065847695,0.41925207851499996,-9.71033152055,-0.7649186849590001
1711569292008713245,0.0,0.0,-0.00174532923847,0.43005839428099996,-9.70714867771,-0.7642015847570001
1711569292011216164,0.0,0.0,-0.00174532923847,0.42512676679399997,-9.70221705771,-0.7617357747600001
1711569292013719797,0.0,0.0,-0.00174532923847,0.420193730001,-9.69728402842,-0.7592692601119999
1711569292016221762,0.00174532923847,0.0,-0.00174532923847,0.41526398158600003,-9.69235428749,-0.7568043896500001
1711569292018724442,0.00174532923847,0.0,-0.00174532923847,0.411879301071,-9.686649455269999,-0.753565276029
1711569292021228313,0.0,0.0,0.0,0.411879301071,-9.67924778842,-0.748630816469
1711569292023731232,0.0,-0.00174532923847,0.0,0.411879301071,-9.67184894072,-0.743698236345
1711569292026232958,-0.00174532923847,-0.00174532923847,0.0,0.411879301071,-9.66445361695,-0.738768005516
1711569292028736830,-0.00349065847695,0.0,-0.00174532923847,0.416041945347,-9.66704246372,-0.7338336706820001
1711569292031239510,0.0,0.0,-0.00349065847695,0.428371312434,-9.6892352975,-0.728901929842
1711569292033742428,0.0,0.0,-0.00349065847695,0.440701854083,-9.71143024549,-0.7239697191779999
1711569292036245108,0.0,0.0,-0.00174532923847,0.45303122117100003,-9.73362307927,-0.719037978338
1711569292038748026,-0.00174532923847,-0.00174532923847,0.0,0.455573183631,-9.74247007619,-0.7247843610439999
1711569292041250706,-0.00349065847695,-0.00174532923847,0.0,0.44077722977300005,-9.72767414481,-0.749444276646
1711569292043753624,-0.00349065847695,-0.00174532923847,0.0,0.425979866375,-9.7128768039,-0.7741065414820001
1711569292046256304,0.0,0.0,0.0,0.411183912517,-9.69808087252,-0.798766457084
1711569292048759222,0.0,0.00174532923847,0.00174532923847,0.402072638273,-9.6927608774,-0.812056276905
1711569292051261902,0.00174532923847,0.0,0.00349065847695,0.402072638273,-9.70262624963,-0.807123590789
1711569292053763866,0.0,0.0,0.00349065847695,0.402072638273,-9.712488802380001,-0.8021923144149999
1711569292056267500,0.0,-0.00349065847695,0.00349065847695,0.402072638273,-9.72235793392,-0.797257748643
1711569292058770418,-0.00174532923847,-0.00349065847695,0.00174532923847,0.407107292298,-9.7281961441,-0.8034010165109999
1711569292061273098,-0.00349065847695,-0.00349065847695,0.0,0.419437848363,-9.7281961441,-0.825596006936
1711569292063776016,-0.00349065847695,-0.00523598771542,0.0,0.431769579103,-9.7281961441,-0.847793111774
1711569292066278696,-0.00349065847695,-0.00349065847695,0.00174532923847,0.444100135168,-9.7281961441,-0.8699881022
1711569292068781853,-0.00349065847695,-0.00174532923847,0.00174532923847,0.446844379798,-9.725000014319999,-0.884729219389
1711569292071284533,-0.00349065847695,0.0,0.00349065847695,0.436980410559,-9.71760204863,-0.889661211502
1711569292073787451,-0.00174532923847,0.0,0.00349065847695,0.42711550162699996,-9.710203378169998,-0.894593673463
1711569292076290369,0.0,0.0,0.00349065847695,0.417250592694,-9.70280470771,-0.8995261354240001
1711569292078793049,0.0,0.0,0.00349065847695,0.411879301071,-9.705515574189999,-0.898842113954
1711569292081295967,0.00174532923847,-0.00174532923847,0.00523598771542,0.411879301071,-9.720313624089998,-0.891443074011
1711569292083798647,0.0,-0.00349065847695,0.00349065847695,0.411879301071,-9.735110264389998,-0.884044738873
1711569292086301565,0.0,-0.00523598771542,0.00349065847695,0.411879301071,-9.749908314299999,-0.8766456989299999
1711569292088804245,-0.00349065847695,-0.00349065847695,0.00349065847695,0.40124617059699996,-9.741075645830001,-0.8881507885780001
1711569292091307163,-0.0069813169539,-0.00174532923847,0.00349065847695,0.37904959002,-9.7065476899,-0.920212506917
1711569292093809843,-0.0069813169539,0.0,0.00349065847695,0.356855123806,-9.672023022969999,-0.952271171177
1711569292096312761,-0.00174532923847,0.0,0.00174532923847,0.334658543229,-9.63749506703,-0.984332889516
1711569292098815441,0.00349065847695,0.0,0.0,0.333535345055,-9.64015505147,-0.975488509592
1711569292101318359,0.008726646192370001,-0.00174532923847,0.00174532923847,0.35326563556999996,-9.67961581238,-0.926162783305
1711569292103821039,0.0104719754308,0.0,0.00349065847695,0.372994046651,-9.7190728144,-0.8768417556010001
1711569292106323957,0.00523598771542,-0.00174532923847,0.00523598771542,0.392724337166,-9.75853357531,-0.827516029314
1711569292108826637,0.0,-0.00349065847695,0.00349065847695,0.39688258328599996,-9.765552530599999,-0.819715441508
1711569292111329556,-0.00349065847695,-0.00523598771542,0.0,0.387017438028,-9.74335574766,-0.849310877281
1711569292113832235,-0.00349065847695,-0.00349065847695,0.0,0.37715323248800003,-9.7211610791,-0.878903493903
1711569292116335154,0.0,0.0,0.0,0.36728808723000006,-9.69896429615,-0.908498929675
1711569292118837833,0.00349065847695,0.0,0.0,0.35606817600900004,-9.68625846879,-0.9123360331839999
1711569292121340752,0.00349065847695,0.0,0.0,0.343736445269,-9.68132578549,-0.895071611647
1711569292123843670,0.00174532923847,-0.00349065847695,0.0,0.33140471453000003,-9.67639310219,-0.877807190111
1711569292126346350,0.00174532923847,-0.00523598771542,0.0,0.31907415846500004,-9.67146088876,-0.860544413118
1711569292128849268,0.00174532923847,-0.00349065847695,0.0,0.332196617593,-9.683497864580001,-0.8319663953540001
1711569292131351948,0.00523598771542,0.0,-0.00174532923847,0.364257593516,-9.708160353230001,-0.794972962172
1711569292133854866,0.00523598771542,0.00174532923847,-0.00349065847695,0.396321623739,-9.73282519136,-0.7579760048
1711569292136357784,0.00174532923847,0.00174532923847,-0.00349065847695,0.428385653962,-9.757490029489999,-0.7209790474269999
1711569292138860703,-0.00174532923847,0.0,-0.00174532923847,0.43098695161000006,-9.74974532591,-0.7208105951279999
1711569292141363382,-0.00523598771542,0.0,-0.00174532923847,0.413722520223,-9.72014896937,-0.7454740706790001
1711569292143866301,-0.00349065847695,-0.00174532923847,-0.00349065847695,0.39645644413500003,-9.69054979332,-0.770139895804
1711569292146368980,0.0,-0.00174532923847,-0.00349065847695,0.379192012748,-9.66095343678,-0.794803371355
1711569292148871899,0.00174532923847,0.0,-0.00349065847695,0.37571746273699996,-9.65740502614,-0.791886144325
1711569292151374578,0.00174532923847,0.0,-0.00174532923847,0.38065015634800003,-9.66973674143,-0.7721553698800001
1711569292153877497,0.00174532923847,0.0,-0.00174532923847,0.385583319874,-9.6820696315,-0.752422715777
1711569292156380177,0.0,-0.00174532923847,-0.00174532923847,0.390516013485,-9.694401346789999,-0.732691941332
1711569292158883095,-0.00174532923847,-0.00174532923847,0.0,0.404998481398,-9.703550925770001,-0.720917403047
1711569292161385775,0.0,0.0,0.0,0.42472879061999996,-9.710949777669999,-0.713518536152
1711569292163888693,0.0,0.0,0.0,0.44446097945600005,-9.71834933443,-0.706118964401
1711569292166391373,0.0,0.0,0.0,0.46419128867799997,-9.725748186339999,-0.698720097506
1711569292168894291,0.0,0.0,0.0,0.459166544535,-9.71499314541,-0.71607666291
1711569292171397209,-0.00523598771542,-0.00349065847695,0.0,0.44190253658699996,-9.69526288488,-0.745672098682
1711569292173899889,-0.00523598771542,-0.00523598771542,0.0,0.42464017314400004,-9.675534503769999,-0.775264715305
1711569292176402807,-0.00349065847695,-0.00349065847695,0.0,0.40737616519599995,-9.655804243239999,-0.804860151077
1711569292178905487,0.0,0.0,0.00174532923847,0.403781209438,-9.66682873987,-0.8054090692929999
1711569292181408405,0.00174532923847,0.0,0.00349065847695,0.406247735854,-9.691493929069999,-0.793076459703
1711569292183911085,0.0,0.0,0.00349065847695,0.408714027317,-9.71615676875,-0.7807450248710001
1711569292186414003,-0.00174532923847,-0.00174532923847,0.00349065847695,0.411180553733,-9.740821957949999,-0.768412415281
1711569292188916683,-0.00349065847695,-0.00349065847695,0.00174532923847,0.41718154160300003,-9.740739763210001,-0.782592834389
1711569292191419601,-0.00349065847695,-0.00174532923847,0.0,0.424580574051,-9.73087439661,-0.807256295868
1711569292193923235,-0.00174532923847,0.0,0.0,0.43198172091000003,-9.72100621079,-0.8319268053929999
1711569292196425200,0.0,0.0,0.0,0.439377934142,-9.71114460314,-0.8565808694779999
1711569292198927879,0.00174532923847,0.0,0.00174532923847,0.433996866809,-9.70858287811,-0.866636369707
1711569292201430798,0.00174532923847,0.0,0.00349065847695,0.42413195787600005,-9.70858287811,-0.871568816679
1711569292203933477,0.0,-0.00174532923847,0.00523598771542,0.41426798863799996,-9.70858287811,-0.876500793804
1711569292206436634,-0.00174532923847,-0.00174532923847,0.00523598771542,0.40440214001100006,-9.70858287811,-0.8814337106219999
1711569292208939314,-0.00174532923847,-0.00174532923847,0.00523598771542,0.405840052524,-9.71611769517,-0.88824958396
1711569292211443186,0.0,-0.00174532923847,0.00349065847695,0.4107746228,-9.725986820720001,-0.895651443121
1711569292213945150,0.0,-0.00349065847695,0.00349065847695,0.415705434118,-9.73584842837,-0.903047663845
1711569292216447830,0.0,-0.00349065847695,0.00349065847695,0.420637655045,-9.745712855239999,-0.910445998983
1711569292218950748,-0.00174532923847,-0.00349065847695,0.00349065847695,0.40420607812700005,-9.72061856898,-0.9294982683499999
1711569292221453428,-0.00174532923847,-0.00174532923847,0.00349065847695,0.382011080207,-9.68609307496,-0.951693258775
1711569292223957300,0.0,-0.00174532923847,0.00349065847695,0.35980551022,-9.65155113552,-0.973898821264
1711569292226459980,0.0,-0.00174532923847,0.00349065847695,0.33761051229999994,-9.617025641489999,-0.996093811689
1711569292228962898,0.00523598771542,-0.00174532923847,0.00349065847695,0.347435286087,-9.64453902168,-0.964254596404
1711569292231465578,0.0069813169539,0.0,0.00349065847695,0.364697236001,-9.68646106705,-0.9198667423260001
1711569292233967543,0.00523598771542,0.0,0.00349065847695,0.38195425252,-9.72837113128,-0.8754915741150001
1711569292236471176,0.00174532923847,-0.00174532923847,0.00349065847695,0.399222780295,-9.77030915152,-0.831086805545
1711569292238973141,-0.00349065847695,-0.00349065847695,0.00174532923847,0.393840569648,-9.75870793636,-0.846396793989
1711569292241476774,-0.00349065847695,-0.00523598771542,0.0,0.38397355074199996,-9.736506937669999,-0.873531099728
1711569292243979692,0.0,-0.00349065847695,0.0,0.37410935071699997,-9.71431228151,-0.900657653546
1711569292246482611,0.00174532923847,0.0,0.0,0.364245150691,-9.69211762536,-0.9277842073639999
1711569292248985291,0.00523598771542,0.00174532923847,0.00349065847695,0.35014980566299997,-9.68896961212,-0.912587382374
1711569292251488209,0.00523598771542,0.0,0.00174532923847,0.33535349813,-9.68896961212,-0.890392921074
1711569292253990889,0.00174532923847,-0.00174532923847,0.0,0.320558600038,-9.68896961212,-0.868200573935
1711569292256493807,0.0,-0.00349065847695,0.0,0.305762292504,-9.68896961212,-0.846006112635
1711569292258996487,0.0,-0.00349065847695,0.0,0.323564225536,-9.702008320800001,-0.821640647384
1711569292261499405,0.00174532923847,-0.00174532923847,0.0,0.34575867934199994,-9.71680459835,-0.796980139825
1711569292264002085,0.00349065847695,-0.00349065847695,0.0,0.367951018987,-9.73159946647,-0.7723219813330001
1711569292266505241,0.0,-0.00349065847695,-0.00174532923847,0.390147586952,-9.74639715346,-0.7476591247069999
1711569292269007921,-0.00174532923847,-0.00349065847695,-0.00349065847695,0.40342057680699994,-9.734423912899999,-0.7519981215189999
1711569292271510839,-0.00349065847695,-0.00349065847695,-0.00349065847695,0.41575348937,-9.71962444481,-0.759397870555
1711569292274013519,-0.00174532923847,0.0,-0.00174532923847,0.428085227145,-9.70482638647,-0.76679691472
1711569292276516438,0.0,0.0,0.0,0.440418139708,-9.690026918380001,-0.7741966637559999
1711569292279019117,0.00174532923847,0.0,0.0,0.434429834357,-9.68896961212,-0.770145725592
1711569292281522036,0.00174532923847,-0.00174532923847,0.0,0.427031156405,-9.68896961212,-0.76521327862
1711569292284024954,0.0,-0.00174532923847,0.0,0.41963247845299995,-9.68896961212,-0.7602808316490001
1711569292286527634,-0.00349065847695,-0.00174532923847,-0.00174532923847,0.412234505271,-9.68896961212,-0.755348854524
1711569292289030552,-0.00174532923847,0.0,-0.00349065847695,0.41892311229999996,-9.69836135091,-0.743372349933
1711569292291533232,0.0,0.0,-0.00349065847695,0.426321439944,-9.70822577778,-0.731041786373
1711569292294036150,0.00349065847695,0.0,-0.00349065847695,0.43372047239100003,-9.71809114438,-0.7187100481380001
1711569292296538830,0.00174532923847,0.0,-0.00174532923847,0.441118800035,-9.72795557125,-0.706379484579
1711569292299041748,0.0,0.0,-0.00174532923847,0.44129922986000003,-9.71616544014,-0.718109500993
1711569292301544428,0.0,-0.00174532923847,-0.00349065847695,0.44129922986000003,-9.703835201950001,-0.7304397691600001
1711569292304047346,0.0,-0.00523598771542,-0.00174532923847,0.44129922986000003,-9.69150378911,-0.7427712119750001
1711569292306550026,0.0,-0.00523598771542,0.0,0.44129922986000003,-9.67917355092,-0.7551014801420001
1711569292309052944,0.0,-0.00523598771542,0.0,0.42651419814900005,-9.68901965196,-0.769897076187
1711569292311555624,0.0,-0.00349065847695,0.00349065847695,0.411717889838,-9.69888384251,-0.784693377004
1711569292314058542,0.0,-0.00349065847695,0.00174532923847,0.39692017195100004,-9.70874897278,-0.799491087395
1711569292316561460,0.0,-0.00349065847695,0.00174532923847,0.382852379049,-9.71844565909,-0.813895761558
1711569292319064140,-0.00174532923847,-0.00174532923847,0.0,0.400114742492,-9.72091170673,-0.8114297139200001
1711569292321567059,0.0,-0.00174532923847,0.0,0.41737875044,-9.7233779893,-0.808963431353
1711569292324069738,0.0,-0.00174532923847,0.0,0.434641113884,-9.725844036939998,-0.806497383715
1711569292326572657,0.0,0.0,0.00174532923847,0.450763324738,-9.7277393878,-0.805172980309
1711569292329075336,0.0,0.0,0.00174532923847,0.44336428057300004,-9.717874015569999,-0.827370112802
1711569292331578255,-0.00174532923847,0.0,0.00174532923847,0.435964531536,-9.70800770351,-0.849569359912
1711569292334081173,-0.00349065847695,0.0,0.0,0.4285647825,-9.69814139145,-0.871768607022
1711569292336584091,-0.00349065847695,-0.00174532923847,0.0,0.421685934067,-9.68966406166,-0.8922315388809999
1711569292339086771,0.0,-0.00174532923847,0.0,0.421685934067,-9.699528252210001,-0.889765476254
1711569292341589689,0.0,-0.00174532923847,0.00174532923847,0.421685934067,-9.70939338248,-0.887299178697
1711569292344092369,0.0,-0.00174532923847,0.00349065847695,0.421685934067,-9.71925757303,-0.8848331160709999
1711569292346595287,0.0,-0.00174532923847,0.00523598771542,0.42099094666500003,-9.72773282011,-0.883756772527
1711569292349097967,-0.00174532923847,-0.00174532923847,0.00523598771542,0.41359207976999995,-9.72280025217,-0.896088222348
1711569292351600885,-0.00349065847695,-0.00174532923847,0.0069813169539,0.406192508019,-9.717867214330001,-0.9084208469299999
1711569292354103804,-0.00174532923847,-0.00174532923847,0.00523598771542,0.39879293626900003,-9.71293417649,-0.920753471511
1711569292356606483,0.0,-0.00174532923847,0.00523598771542,0.390231480634,-9.7071296694,-0.932794312641
1711569292359109402,0.0,-0.00174532923847,0.00523598771542,0.372965412041,-9.694796779330002,-0.9426606396930001
1711569292361612082,0.0,-0.00174532923847,0.0069813169539,0.35570098814999995,-9.682465064039999,-0.9525260269149999
1711569292364115000,-0.00174532923847,-0.00174532923847,0.0069813169539,0.338434919557,-9.67013217396,-0.962392353967
1711569292366617680,-0.00174532923847,-0.00174532923847,0.00349065847695,0.326767741294,-9.66339764601,-0.965961001177
1711569292369120598,0.0,0.0,0.00174532923847,0.348964321871,-9.69052699408,-0.9314329852809999
1711569292371623278,0.00349065847695,0.0,0.00174532923847,0.37115878808499997,-9.717653757919999,-0.8969082583939999
1711569292374126196,0.00523598771542,0.0,0.00349065847695,0.393355368662,-9.744783105989999,-0.8623802424979999
1711569292376628876,0.00523598771542,0.0,0.00349065847695,0.408208415506,-9.762936959760001,-0.837236119464
1711569292379131794,0.0,-0.00523598771542,0.00349065847695,0.38600970775,-9.73580501178,-0.8594348197239999
1711569292381634474,-0.00349065847695,-0.0069813169539,0.00174532923847,0.36381311456,-9.70867564828,-0.881631405419
1711569292384137392,-0.00523598771542,-0.00523598771542,0.0,0.341614406804,-9.681543700299999,-0.903830105679
1711569292386640310,-0.00174532923847,0.0,0.00174532923847,0.323619455099,-9.66141786697,-0.91715466104
1711569292389142990,0.0,0.0,0.00523598771542,0.323619455099,-9.67128205752,-0.892494154682
1711569292391645908,0.00174532923847,-0.00174532923847,0.00349065847695,0.323619455099,-9.68114718779,-0.867831299034
1711569292394149542,0.00349065847695,-0.00349065847695,0.00174532923847,0.323619455099,-9.6910151372,-0.8431613955130001
1711569292396651506,0.00349065847695,-0.00174532923847,0.0,0.329921009955,-9.70140188898,-0.818507304833
1711569292399154186,0.00349065847695,0.0,-0.00174532923847,0.35951717162299995,-9.713733604269999,-0.793843829282
1711569292401657343,0.00174532923847,0.00174532923847,-0.00523598771542,0.389118972265,-9.72606766913,-0.769175654583
1711569292404160023,0.0,0.00174532923847,-0.0069813169539,0.41871513393200005,-9.73839938442,-0.744512179032
1711569292406662941,-0.00174532923847,0.0,-0.00523598771542,0.437792291383,-9.74138003266,-0.7309525001999999
1711569292409165621,-0.00349065847695,0.0,-0.00174532923847,0.422996337525,-9.71425415847,-0.7531464272399999
1711569292411669493,-0.00349065847695,-0.00349065847695,0.0,0.40819333596199997,-9.687115363510001,-0.775350925836
1711569292414171219,-0.00349065847695,-0.00349065847695,0.0,0.393403020269,-9.65999982594,-0.7975363956300001
1711569292416674137,0.0,-0.00174532923847,0.0,0.38567090200000004,-9.646359554470001,-0.806244169036
1711569292419177055,0.0,0.0,-0.00174532923847,0.398002632739,-9.671022970980001,-0.776648024255
1711569292421680689,0.00349065847695,0.00174532923847,-0.00174532923847,0.410337887502,-9.695693435519999,-0.747043421822
1711569292424183607,0.00174532923847,0.0,-0.00174532923847,0.42266961824199994,-9.720356852030001,-0.717447277041
1711569292426685333,0.0,0.0,-0.00174532923847,0.432893848645,-9.735200277799999,-0.7004758922509999
1711569292429188251,-0.00174532923847,0.0,-0.00349065847695,0.43782689398,-9.72533420212,-0.715275035752
1711569292431691885,-0.00349065847695,0.0,-0.00523598771542,0.44276134902500003,-9.71546530702,-0.7300784083849999
1711569292434194803,-0.00174532923847,-0.00174532923847,-0.00523598771542,0.44769439436,-9.70559923135,-0.744877551886
1711569292436697483,0.0,-0.00174532923847,-0.00174532923847,0.44806366550399995,-9.695734022589999,-0.757393718863
1711569292439200401,0.0,-0.00174532923847,0.0,0.43819733845200004,-9.68586771053,-0.7647934529070001
1711569292441702127,0.0,0.0,0.0,0.42833571054700004,-9.6760060976,-0.772189662598
1711569292444205046,0.0,0.0,0.0,0.418469383495,-9.66613978555,-0.779589396643
1711569292446707726,0.0,0.00174532923847,0.0,0.415154841306,-9.66773855128,-0.782894183322
1711569292449211597,0.00174532923847,0.0,0.0,0.425025637157,-9.69241550341,-0.777958792896
1711569292451714516,0.00174532923847,0.0,0.0,0.434892673421,-9.717083056589999,-0.7730252822600001
1711569292454217196,0.0,0.0,0.0,0.444758769788,-9.74174826003,-0.768092241572
1711569292456720114,-0.00174532923847,-0.00174532923847,0.0,0.446706842813,-9.75057757617,-0.77811583182
1711569292459222794,-0.00523598771542,-0.00349065847695,0.0,0.43437658213999997,-9.73084919507,-0.815106606345
1711569292461725712,-0.00523598771542,-0.00349065847695,0.00174532923847,0.422045146821,-9.71111893453,-0.852100904808
1711569292464228630,-0.00349065847695,-0.00349065847695,0.00174532923847,0.40971371150200003,-9.691388674,-0.8890952032709999
1711569292466731548,0.0,-0.00174532923847,0.00174532923847,0.40582537631099996,-9.6866684438,-0.9045129422370001
1711569292469234228,0.0,-0.00174532923847,0.00174532923847,0.415690763533,-9.70639918826,-0.884782167792
1711569292471737146,0.00174532923847,-0.00174532923847,0.00349065847695,0.425557090585,-9.72613181238,-0.865049513689
1711569292474239826,0.0,-0.00349065847695,0.00523598771542,0.435422477807,-9.745862556839999,-0.845318739244
1711569292476742744,-0.00174532923847,-0.00523598771542,0.00523598771542,0.435315584173,-9.74963786096,-0.8455325265129999
1711569292479245424,-0.00523598771542,-0.00523598771542,0.00523598771542,0.420519275862,-9.72990947986,-0.875125143135
1711569292481748343,-0.00523598771542,-0.00349065847695,0.00523598771542,0.405721557976,-9.710179219319999,-0.904720578907
1711569292484251022,-0.00349065847695,-0.00349065847695,0.00349065847695,0.390925249664,-9.69045083822,-0.9343131955299999
1711569292486753702,-0.00174532923847,0.0,0.00349065847695,0.38034936041199996,-9.67916297913,-0.951245009899
1711569292489256620,0.0,0.0,0.00523598771542,0.375417142253,-9.67916297913,-0.951245009899
1711569292491759300,0.0,0.0,0.0069813169539,0.37048539391999996,-9.67916297913,-0.951245009899
1711569292494262218,0.0,-0.00349065847695,0.00523598771542,0.365553175761,-9.67916297913,-0.951245009899
1711569292496764898,-0.00174532923847,-0.00523598771542,0.00349065847695,0.367295285204,-9.68917385875,-0.939009602285
1711569292499267817,0.0,-0.00349065847695,0.00174532923847,0.37715972152099997,-9.71136904656,-0.9118823986669999
1711569292501770496,0.00174532923847,0.0,0.00174532923847,0.387023218188,-9.73356212014,-0.884757779084
1711569292504273176,0.00523598771542,0.0,0.00174532923847,0.396886714856,-9.75575519372,-0.8576331595000001
1711569292506776094,0.00174532923847,0.0,0.00349065847695,0.39154421705799997,-9.75104599954,-0.8562399381119999
1711569292509278774,-0.00174532923847,0.0,0.00174532923847,0.36934762386799996,-9.716517784139999,-0.883369106734
1711569292511781693,-0.00523598771542,-0.00174532923847,0.0,0.347148916112,-9.6819862794,-0.9105008598250001
1711569292514284372,-0.00349065847695,-0.00174532923847,0.0,0.324952322922,-9.647458064,-0.9376300284469999
1711569292516787052,0.0,0.0,0.0,0.318726688315,-9.642414535519999,-0.9328178979809999
1711569292519289970,0.00523598771542,0.0,0.00174532923847,0.328592069909,-9.66707795202,-0.895822713257
1711569292521792650,0.0069813169539,-0.00174532923847,0.00523598771542,0.33845651176299996,-9.691739019189999,-0.858831052555
1711569292524295568,0.00523598771542,-0.00523598771542,0.00523598771542,0.348321893357,-9.716402435700001,-0.8218358678319999
1711569292526798248,0.0,-0.00523598771542,0.00349065847695,0.35947307499700004,-9.725622672350001,-0.800285061099
1711569292529301167,0.0,-0.00174532923847,0.0,0.37180480573700003,-9.72068998905,-0.792886021156
1711569292531803846,0.0,0.0,-0.00349065847695,0.38413536180200003,-9.715757775619998,-0.7854876860179999
1711569292534306526,0.0,0.0,-0.00523598771542,0.39646591786700003,-9.71082556219,-0.77808935088
1711569292536809683,0.00174532923847,0.0,-0.00523598771542,0.403417973599,-9.70858287811,-0.773379986717
1711569292539312363,0.0,0.0,-0.00523598771542,0.405884265063,-9.70858287811,-0.7709137027490001
1711569292541815281,0.0,0.0,-0.00349065847695,0.40835079147799996,-9.70858287811,-0.768447183829
1711569292544317961,0.0,0.0,-0.00174532923847,0.41081708294200003,-9.70858287811,-0.765980899861
1711569292546820641,0.0,0.0,0.0,0.409071087123,-9.70437056999,-0.763514582252
1711569292549323559,0.0,0.0,0.0,0.404137916101,-9.696970835950001,-0.7610480042380001
1711569292551826239,0.0,-0.00174532923847,-0.00174532923847,0.399205214995,-9.68957180677,-0.75858166118
1711569292554329157,0.0,-0.00174532923847,-0.00349065847695,0.394272043973,-9.68217207273,-0.756115083165
1711569292556831837,0.0,-0.00174532923847,-0.00349065847695,0.39958184697899995,-9.68647883729,-0.747796176013
1711569292559334755,0.0,-0.00174532923847,-0.00349065847695,0.411913577719,-9.698810545539999,-0.735464437779
1711569292561837435,0.0,-0.00349065847695,-0.00349065847695,0.424244133784,-9.71114107913,-0.723133874219
1711569292564340115,0.0,-0.00349065847695,-0.00174532923847,0.436574689849,-9.72347161271,-0.7108033106589999
1711569292566843033,0.0,-0.00174532923847,0.0,0.439777648681,-9.717545075850001,-0.7167298545309999
1711569292569345713,-0.00174532923847,-0.00174532923847,0.0,0.43731130562299997,-9.700280674439998,-0.7339942859180001
1711569292571848631,-0.00349065847695,-0.00174532923847,0.0,0.43484472760799997,-9.68301462834,-0.751260362006
1711569292574351311,-0.00349065847695,-0.00349065847695,0.0,0.43237838455,-9.665750226930001,-0.7685247933930001
1711569292576853991,-0.00174532923847,-0.00349065847695,0.0,0.43149259686499997,-9.67219264156,-0.76998421019
1711569292579356909,0.0,0.0,0.00174532923847,0.43149259686499997,-9.6919229021,-0.762585347499
1711569292581859589,0.00174532923847,0.0,0.00349065847695,0.43149259686499997,-9.7116512832,-0.7551871895960001
1711569292584362507,0.0,0.0,0.00174532923847,0.43149259686499997,-9.73138154373,-0.747788326906
1711569292586865187,0.0,0.0,0.0,0.429854159168,-9.73144904623,-0.763328149136
1711569292589368105,-0.00349065847695,0.0,0.0,0.427387810022,-9.72158367962,-0.790457952266
1711569292591870785,-0.00523598771542,0.0,0.0,0.42492169581100003,-9.71171925276,-0.8175851711130001
1711569292594373465,-0.00349065847695,-0.00174532923847,-0.00174532923847,0.42245558159999996,-9.701854825889999,-0.8447123899600001
1711569292596876383,-0.00349065847695,-0.00174532923847,0.0,0.428473380625,-9.705563681360001,-0.8497847830069999
1711569292599379063,0.0,-0.00174532923847,0.0,0.438338767847,-9.71542905359,-0.8448520968909999
1711569292601881981,0.0,-0.00174532923847,0.0,0.448205094899,-9.72529536565,-0.8399189408609999
1711569292604384661,0.0,-0.00174532923847,0.00349065847695,0.458070482121,-9.735160737889998,-0.834986254745
1711569292606887341,0.0,0.0,0.00349065847695,0.445111892519,-9.72571341652,-0.856388376038
1711569292609391451,-0.00349065847695,0.0,0.00349065847695,0.422904740128,-9.708441216039999,-0.888465379768
1711569292611893177,-0.00523598771542,0.0,0.00349065847695,0.400718731365,-9.691185460589999,-0.9205118426960001
1711569292614397049,-0.00523598771542,-0.00174532923847,0.00349065847695,0.37851369333800006,-9.673914904610001,-0.9525857923459999
1711569292616899729,0.0,-0.00349065847695,0.00349065847695,0.37809729613799997,-9.68750520737,-0.941088105149
1711569292619402647,0.0,-0.00349065847695,0.00523598771542,0.385496336081,-9.71216886373,-0.9139582870290001
1711569292621905327,0.00349065847695,-0.00349065847695,0.0069813169539,0.392894671219,-9.736830170720001,-0.8868310531929999
1711569292624408245,0.00174532923847,-0.00349065847695,0.00523598771542,0.400293711162,-9.76149382707,-0.859701235072
1711569292626909971,0.0,-0.00523598771542,0.00523598771542,0.387095075705,-9.73934056055,-0.881261433789
1711569292629412651,-0.00523598771542,-0.0069813169539,0.00523598771542,0.367366191996,-9.70234871998,-0.918253094491
1711569292631915569,-0.008726646192370001,-0.0069813169539,0.00523598771542,0.34763542880900006,-9.66535335537,-0.9552482792139999
1711569292634418249,-0.0069813169539,-0.00349065847695,0.00174532923847,0.3279065451,-9.6283615148,-0.992239939916
1711569292636921167,0.0,0.0,0.0,0.33713234248,-9.64541851075,-0.965530808113
1711569292639424801,0.00349065847695,0.0,0.0,0.354401276444,-9.67748934634,-0.921124975777
1711569292641927481,0.0069813169539,0.00174532923847,0.00349065847695,0.371663632393,-9.709547965630001,-0.876736058337
1711569292644430399,0.0069813169539,0.0,0.00349065847695,0.38892763284599996,-9.741609639,-0.832342912174
1711569292646932125,0.00174532923847,0.0,0.00174532923847,0.384312200867,-9.737867206939999,-0.8337008173810001
1711569292649435997,-0.00174532923847,-0.00174532923847,0.0,0.374442114499,-9.72552961773,-0.8460384215919999
1711569292651938677,-0.00349065847695,0.0,0.0,0.364576727276,-9.71319790244,-0.8583701518729999
1711569292654441595,0.0,0.0,0.0,0.35471040022399997,-9.700865012360001,-0.8707030569390001
1711569292656944275,0.00174532923847,-0.00174532923847,0.00174532923847,0.348942591065,-9.69467945852,-0.870743433426
1711569292659446955,0.00174532923847,-0.00349065847695,0.0,0.344010370138,-9.689747245089999,-0.86827732671
1711569292661949873,0.00174532923847,-0.00349065847695,0.0,0.339077679341,-9.68481456178,-0.865810985059
1711569292664452553,0.00349065847695,-0.00349065847695,0.0,0.334145458414,-9.67988234835,-0.8633448783419999
1711569292666955471,0.00523598771542,-0.00174532923847,0.0,0.356598798782,-9.69390922512,-0.8292794245819999
1711569292669458151,0.00523598771542,-0.00174532923847,-0.00349065847695,0.383725367766,-9.71117155859,-0.78982258743
1711569292671961069,0.00349065847695,-0.00174532923847,-0.00523598771542,0.410854520972,-9.72843553655,-0.75036199141
1711569292674463749,0.0,-0.00174532923847,-0.00523598771542,0.437981089956,-9.745697870019999,-0.710905154259
1711569292676966667,-0.00174532923847,0.0,-0.00349065847695,0.426146402652,-9.72399786583,-0.725560979826
1711569292679469585,-0.00523598771542,0.0,-0.00174532923847,0.408881981115,-9.69686810767,-0.747758099655
1711569292681972265,-0.00523598771542,0.0,0.0,0.391619204123,-9.669740933789999,-0.7699531050689999
1711569292684475183,-0.00174532923847,-0.00174532923847,-0.00174532923847,0.37435478258599997,-9.642611175630002,-0.792150224898
1711569292686977863,0.0,-0.00174532923847,-0.00349065847695,0.390434606122,-9.657718339810001,-0.7743339737720001
1711569292689480782,0.0,0.0,-0.00349065847695,0.41016348625,-9.677447182469999,-0.752138980818
1711569292691983461,0.0,0.0,-0.00349065847695,0.429890487079,-9.697174145830001,-0.729946102075
1711569292694486141,0.0,0.0,-0.00174532923847,0.44961748790899997,-9.71690110919,-0.707753223332
1711569292696989059,0.0,0.0,-0.00174532923847,0.44882572139700005,-9.71610934678,-0.710639110298
1711569292699491739,0.0,0.00174532923847,-0.00349065847695,0.44635972534100005,-9.713643358210001,-0.715571102412
1711569292701994658,0.0,0.00349065847695,-0.00349065847695,0.44389349436000003,-9.71117713473,-0.720503564373
1711569292704497337,0.00349065847695,0.00349065847695,0.0,0.44142749830300004,-9.70871114617,-0.725435556486
1711569292707000256,0.00349065847695,0.00174532923847,0.0,0.431946945842,-9.70156867576,-0.742058593956
1711569292709502935,0.0,0.0,0.0,0.422082503988,-9.694170355610002,-0.759321370949
1711569292712005615,-0.00174532923847,-0.00349065847695,0.0,0.412218062133,-9.68677203546,-0.7765841479410001
1711569292714508533,-0.00174532923847,-0.00174532923847,0.0,0.40235268053999995,-9.679373010510002,-0.793848569478
1711569292717011213,0.0,0.0,0.0,0.411656119507,-9.700726012130001,-0.784755162317
1711569292719514132,0.00349065847695,0.0,0.0,0.421520555824,-9.72292119994,-0.774890726
1711569292722016811,0.00349065847695,0.0,0.0,0.431384052492,-9.74511427352,-0.7650272293320001
1711569292724519491,0.0,-0.00174532923847,0.00349065847695,0.441247549159,-9.767307347100001,-0.7551637326649999
1711569292727022409,-0.00174532923847,-0.00523598771542,0.00349065847695,0.433939137956,-9.7502498608,-0.787005795974
1711569292729525089,-0.00523598771542,-0.00523598771542,0.00174532923847,0.426540987548,-9.732987287510001,-0.8190644602339999
1711569292732028008,-0.00523598771542,-0.00349065847695,0.00174532923847,0.41914213235200004,-9.715723069700001,-0.851126178573
1711569292734530687,-0.00523598771542,-0.00174532923847,0.00174532923847,0.411879301071,-9.69891155438,-0.882688666172
1711569292737033606,-0.00174532923847,0.0,0.00349065847695,0.411879301071,-9.70630987038,-0.887620891825
1711569292739536285,0.0,0.0,0.00349065847695,0.411879301071,-9.713707481639998,-0.892552647652
1711569292742038965,0.0,0.0,0.00523598771542,0.411879301071,-9.7211050929,-0.8974844034799999
1711569292744541883,0.0,-0.00174532923847,0.00523598771542,0.41136720442,-9.7281961441,-0.9021093661730001
1711569292747044563,0.0,-0.00174532923847,0.00523598771542,0.39903812517399995,-9.7281961441,-0.8996435548200001
1711569292749547720,0.0,-0.00174532923847,0.00523598771542,0.386706696861,-9.7281961441,-0.897177273654
1711569292752050400,0.0,-0.00174532923847,0.00523598771542,0.374377617615,-9.7281961441,-0.8947114623010001
1711569292754553318,0.00174532923847,-0.00174532923847,0.00523598771542,0.363165588618,-9.72691797832,-0.8944821756039999
1711569292757055998,0.0,0.0,0.00523598771542,0.36809828222900004,-9.707187233860001,-0.9265446953200001
1711569292759558678,0.0,0.00174532923847,0.00523598771542,0.37303097584,-9.68745648939,-0.958607215036
1711569292762061596,-0.00523598771542,0.0,0.00523598771542,0.377964139366,-9.66772386527,-0.990672789197
1711569292764564276,-0.00523598771542,0.0,0.00523598771542,0.383771688202,-9.65258651282,-1.01551713261
1711569292767067194,-0.00174532923847,-0.00174532923847,0.00349065847695,0.398569760593,-9.68464919413,-0.966190209653
1711569292769569874,0.00349065847695,-0.00174532923847,0.00174532923847,0.413366423374,-9.716708821260001,-0.9168679853910001
1711569292772072792,0.0069813169539,0.0,0.00349065847695,0.428164495765,-9.74877150257,-0.8675410624330001
1711569292774575472,0.00523598771542,0.00349065847695,0.00523598771542,0.4365905443,-9.77335250101,-0.82680539883
1711569292777078152,0.0,0.00174532923847,0.00349065847695,0.394667667004,-9.738827594260002,-0.8539319678149999
1711569292779581070,-0.00523598771542,0.0,0.00174532923847,0.352740795912,-9.70429939848,-0.8810611210200001
1711569292782083750,-0.00523598771542,0.0,0.0,0.310817918617,-9.66977449173,-0.908187690004
1711569292784586668,-0.00349065847695,0.0,0.0,0.277936370783,-9.64261657913,-0.927946556323
1711569292787089348,0.0,0.0,0.00174532923847,0.302597475419,-9.66234543286,-0.9008193374760001
1711569292789592266,0.00174532923847,0.0,0.00174532923847,0.327260929403,-9.68207616606,-0.8736895343459999
1711569292792094946,0.00174532923847,0.0,0.0,0.35192203403899996,-9.70180501979,-0.846562315499
1711569292794597626,0.0,-0.00174532923847,0.0,0.373438771481,-9.71917560171,-0.8206142325579999
1711569292797100544,0.0,0.0,-0.00174532923847,0.378371462277,-9.72410828501,-0.800883454381
1711569292799603224,0.0,0.0,-0.00174532923847,0.383303683205,-9.72904049845,-0.781154555683
1711569292802106142,0.00349065847695,0.00174532923847,-0.00349065847695,0.38823637400100003,-9.733973181749999,-0.7614237775049999
1711569292804608822,0.00523598771542,0.00174532923847,-0.00349065847695,0.39091207941600004,-9.73574628595,-0.748013154225
1711569292807111740,0.00174532923847,0.0,-0.00174532923847,0.38351322422,-9.72341487312,-0.762810879606
1711569292809614420,-0.00174532923847,0.0,-0.00174532923847,0.376115073812,-9.71108463493,-0.777607195412
1711569292812117100,-0.00523598771542,-0.00349065847695,-0.00349065847695,0.36871692340400003,-9.698754396739998,-0.792403511217
1711569292814621210,-0.00523598771542,-0.00349065847695,-0.00349065847695,0.366930055191,-9.69050111298,-0.800571768329
1711569292817123890,-0.00174532923847,-0.00174532923847,-0.00174532923847,0.386658466273,-9.6978992559,-0.783309404885
1711569292819626808,0.0,0.0,-0.00174532923847,0.406388756788,-9.7052981036,-0.766045396937
1711569292822129488,0.00174532923847,0.0,0.0,0.42611716787,-9.712696246510001,-0.748783033494
1711569292824632406,0.00174532923847,0.0,0.0,0.439593604167,-9.71611534582,-0.734361643725
1711569292827135086,0.0,-0.00174532923847,0.0,0.432195276524,-9.70625091896,-0.729429430292
1711569292829637051,0.0,-0.00349065847695,-0.00174532923847,0.424799063292,-9.6963893113,-0.7244986264659999
1711569292832140684,0.0,-0.00174532923847,-0.00174532923847,0.41739791643299995,-9.68652112549,-0.719564533557
1711569292834643364,0.0,0.0,0.0,0.41313241320699995,-9.67853642401,-0.719018239764
1711569292837145329,0.0,0.00349065847695,0.0,0.41806310640199995,-9.67607108116,-0.7313449690070001
1711569292839648962,-0.00174532923847,0.00174532923847,0.0,0.422997088606,-9.67360409381,-0.7436799207670001
1711569292842151880,-0.00349065847695,0.0,0.0,0.427929661235,-9.67113781124,-0.7560113485909999
1711569292844654560,-0.00523598771542,-0.00174532923847,0.0,0.43149259686499997,-9.673464333370001,-0.7649186849590001
1711569292847157478,-0.00349065847695,-0.00349065847695,0.0,0.43149259686499997,-9.68826380146,-0.7649186849590001
1711569292849660158,0.0,-0.00349065847695,0.00174532923847,0.43149259686499997,-9.7030618598,-0.7649186849590001
1711569292852162838,0.0,-0.00174532923847,0.00349065847695,0.43149259686499997,-9.717859918150001,-0.7649186849590001
1711569292854665756,0.0,-0.00174532923847,0.00349065847695,0.429261185124,-9.72596473688,-0.7716129156620001
1711569292857168436,0.0,-0.00174532923847,0.00349065847695,0.42186284998499995,-9.718566416729999,-0.793807906087
1711569292859671354,-0.00349065847695,-0.00349065847695,0.00174532923847,0.414463810043,-9.71116739178,-0.816005010926
1711569292862174034,-0.00349065847695,-0.00174532923847,0.0,0.407065474904,-9.70376907163,-0.838200001351
1711569292864676952,-0.00174532923847,-0.00174532923847,0.0,0.406082495999,-9.70198412545,-0.853980476086
1711569292867179632,0.0,-0.00174532923847,0.0,0.418411575245,-9.711847370860001,-0.8564463024269999
1711569292869682550,0.0,-0.00174532923847,0.00174532923847,0.43074182902400004,-9.7217115559,-0.858912363674
1711569292872185230,0.0,-0.00174532923847,0.00349065847695,0.44307090827,-9.73157480131,-0.8613781900149999
1711569292874687910,0.0,-0.00174532923847,0.00523598771542,0.445093440273,-9.73456709599,-0.867279800338
1711569292877190828,-0.00174532923847,-0.00349065847695,0.00523598771542,0.427829018737,-9.724701729389999,-0.879611523583
1711569292879693508,-0.00174532923847,-0.00523598771542,0.00523598771542,0.410566241744,-9.71483730252,-0.891942072154
1711569292882196426,-0.00174532923847,-0.00523598771542,0.00523598771542,0.39330182020800003,-9.70497193592,-0.904273795398
1711569292884699106,-0.00174532923847,-0.00349065847695,0.00349065847695,0.380624971659,-9.6978590611,-0.9175215335600001
1711569292887202263,-0.00174532923847,-0.00174532923847,0.00349065847695,0.375691810993,-9.695392484520001,-0.932321023055
1711569292889704943,-0.00174532923847,0.0,0.00349065847695,0.370759590066,-9.6929263778,-0.947117693331
1711569292892207623,0.0,0.0,0.00523598771542,0.36582736913900005,-9.690460271080001,-0.961914363608
1711569292894710541,0.0,0.0,0.00523598771542,0.36577274715,-9.69189630962,-0.964029362805
1711569292897213221,0.0,-0.00174532923847,0.00349065847695,0.373170188703,-9.69929374368,-0.946768653359
1711569292899716139,0.0,-0.00174532923847,0.00174532923847,0.38056833497500003,-9.706691882460001,-0.9295062995669999
1711569292902218819,0.00349065847695,0.0,0.00349065847695,0.387965776528,-9.714089316519999,-0.9122455901209999
1711569292904721737,0.00349065847695,0.0,0.00523598771542,0.38400378887100006,-9.710127337060001,-0.904277328829
1711569292907224417,0.0,0.0,0.00523598771542,0.364274905162,-9.69039848333,-0.909209542262
1711569292909727097,-0.00174532923847,-0.00349065847695,0.00174532923847,0.344546021453,-9.6706696296,-0.914141755694
1711569292912230015,-0.00349065847695,-0.00523598771542,0.0,0.324815258266,-9.650938896389999,-0.9190744389959999
1711569292914732695,0.0,-0.00349065847695,0.0,0.321448226565,-9.65193496586,-0.913098842615
1711569292917235613,0.00174532923847,0.0,0.00174532923847,0.33871223451300003,-9.6790640741,-0.8933685520999999
1711569292919738293,0.00349065847695,0.0,0.00349065847695,0.355974597957,-9.70619059812,-0.8736401410179999
1711569292922241211,0.00174532923847,0.0,0.00349065847695,0.37323860590499996,-9.73331970635,-0.8539098505030001
1711569292924743891,0.0,-0.00349065847695,0.00174532923847,0.379013260186,-9.744363334780001,-0.836479703546
1711569292927246809,0.0,-0.00523598771542,0.0,0.37161510641999995,-9.73696519601,-0.821683396013
1711569292929749489,0.0,-0.00349065847695,0.0,0.364217657373,-9.729567761950001,-0.8068884979209999
1711569292932252169,0.00174532923847,-0.00174532923847,0.0,0.356820208327,-9.72217032789,-0.7920935998280001
1711569292934755087,0.00349065847695,0.0,0.0,0.357863064944,-9.713565837380001,-0.7821201140880001
1711569292937257767,0.00349065847695,-0.00174532923847,0.00174532923847,0.367727506798,-9.703701410519999,-0.7771879006550001
1711569292939760685,0.00174532923847,-0.00174532923847,0.0,0.37759288839199995,-9.69383604391,-0.7722552173530001
1711569292942263365,0.0,-0.00174532923847,-0.00174532923847,0.387457330246,-9.68397161705,-0.7673230039210001
1711569292944766283,0.0,0.0,-0.00174532923847,0.39605843881499997,-9.6816912829,-0.762390373505
1711569292947268963,0.0,-0.00174532923847,-0.00174532923847,0.40345659671800005,-9.68662337817,-0.7574582632410001
1711569292949771643,0.0,-0.00174532923847,-0.00174532923847,0.41085475462,-9.69155547345,-0.752526152976
1711569292952274561,0.0,-0.00174532923847,-0.00174532923847,0.418253617311,-9.69648803858,-0.747593572852
1711569292954777241,0.0,0.0,-0.00174532923847,0.420363958027,-9.694810317,-0.746627343439
1711569292957280159,0.0,0.0,-0.00174532923847,0.417897616376,-9.68741129204,-0.74909370008
1711569292959783077,0.0,0.00174532923847,-0.00174532923847,0.41543127472499997,-9.68001226709,-0.7515600567209999
1711569292962285995,0.0,0.00349065847695,-0.00174532923847,0.412964933074,-9.67261324214,-0.7540264133619999
1711569292964788675,0.0,0.00349065847695,-0.00174532923847,0.417401737512,-9.67487877418,-0.750970222535
1711569292967291594,0.0,0.00349065847695,-0.00349065847695,0.427268064564,-9.68474508624,-0.7435704734990001
1711569292969794273,0.0,0.0,-0.00349065847695,0.437133451786,-9.69461045847,-0.736171429334
1711569292972296953,0.0,0.0,-0.00523598771542,0.44699883900799997,-9.7044758307,-0.7287723851700001
1711569292974799871,0.0,-0.00174532923847,-0.00349065847695,0.44534841251999996,-9.70570414242,-0.7328889413580001
1711569292977302551,-0.00174532923847,-0.00174532923847,0.0,0.435486097081,-9.70077299219,-0.74521683191
1711569292979805470,-0.00349065847695,-0.00174532923847,0.0,0.42562284210600004,-9.6958413722,-0.757545896883
1711569292982308149,-0.00349065847695,-0.00174532923847,0.00174532923847,0.415760526667,-9.69091022197,-0.7698737874349999
1711569292984811068,-0.00174532923847,-0.00174532923847,0.00174532923847,0.41337509275600004,-9.694952778860001,-0.776221109639
1711569292987313747,0.0,-0.00349065847695,0.0,0.41584114039399994,-9.70481696941,-0.778687157277
1711569292989816427,0.0,-0.00174532923847,0.0,0.418307188032,-9.714681159960001,-0.781153204916
1711569292992319345,0.0,-0.00174532923847,0.0,0.420773470599,-9.72454629023,-0.7836194874819999
1711569292994822025,0.0,-0.00174532923847,0.0,0.424792511756,-9.72664285762,-0.798511557631
1711569292997324944,0.0,-0.00174532923847,0.0,0.429724139243,-9.72417704762,-0.8207038925660001
1711569292999828577,0.0,-0.00174532923847,0.00174532923847,0.434657176036,-9.721710532969999,-0.842902569376
1711569293002331495,0.0,-0.00174532923847,0.00174532923847,0.439588803524,-9.71924472298,-0.865094904311
1711569293004833221,-0.00174532923847,-0.00174532923847,0.0,0.436470375549,-9.71517027816,-0.876011069454
1711569293007337093,0.0,-0.00174532923847,0.0,0.42906923311300005,-9.7102361882,-0.8809451744079999
1711569293009839773,0.0,-0.00174532923847,0.0,0.421671614359,-9.705304447360001,-0.885876930236
1711569293012342691,0.00174532923847,0.0,0.00349065847695,0.41427329086900005,-9.7003722367,-0.890809155889
1711569293014844418,0.00174532923847,0.0,0.00523598771542,0.408545101502,-9.703777529269999,-0.8924051523209999
1711569293017348051,0.00174532923847,0.0,0.00523598771542,0.403610993599,-9.71117866863,-0.8924051523209999
1711569293019850969,0.0,0.0,0.00523598771542,0.398678295307,-9.71857769359,-0.8924051523209999
1711569293022352695,-0.00174532923847,0.0,0.00174532923847,0.393747946366,-9.72597319452,-0.8924051523209999
1711569293024856806,-0.00349065847695,-0.00349065847695,0.0,0.39399247248999997,-9.721290177030001,-0.906217107455
1711569293027359486,-0.00349065847695,-0.00523598771542,0.00174532923847,0.396458527623,-9.71142598648,-0.9259455185359999
1711569293029861212,-0.00174532923847,-0.00349065847695,0.00523598771542,0.398923643037,-9.70156555479,-0.945666411885
1711569293032365084,0.0,-0.00349065847695,0.0069813169539,0.401390872817,-9.69169666566,-0.965404220133
1711569293034866810,0.0,-0.00174532923847,0.00523598771542,0.402072638273,-9.696103161169999,-0.949457644999
1711569293037370682,0.00174532923847,-0.00174532923847,0.0,0.402072638273,-9.70597228672,-0.919850208353
1711569293039873362,0.00349065847695,0.0,0.0,0.402072638273,-9.715836713589999,-0.8902568678
1711569293042376280,0.00523598771542,0.0,0.0,0.402072638273,-9.725702080189999,-0.860660708029
1711569293044878960,0.00174532923847,0.0,0.0,0.387332243102,-9.717140864520001,-0.864233803107
1711569293047381878,-0.00174532923847,-0.00523598771542,0.0,0.36760195258699996,-9.702343169119999,-0.879031528488
1711569293049883604,-0.00523598771542,-0.008726646192370001,0.0,0.34788105923900003,-9.68755252159,-0.8938222059909999
1711569293052387476,-0.0069813169539,-0.008726646192370001,0.0,0.328143250991,-9.672749187889998,-0.908625569675
1711569293054890156,-0.00349065847695,-0.00523598771542,0.0,0.335022916492,-9.67695864217,-0.8987143771330001
1711569293057393074,0.0,-0.00174532923847,0.00174532923847,0.349820634378,-9.68682377244,-0.8814503691850001
1711569293059895754,0.00349065847695,0.0,0.00349065847695,0.364616942689,-9.69668796299,-0.8641880057410001
1711569293062398434,0.00349065847695,0.0,0.00349065847695,0.379413251,-9.70655215355,-0.846925642298
1711569293064901352,0.00174532923847,0.0,0.00349065847695,0.38245934248,-9.712499799460002,-0.8257456982629999
1711569293067404032,0.00174532923847,0.0,0.00174532923847,0.38245934248,-9.7174315403,-0.803552834508
1711569293069906950,0.00174532923847,0.0,0.0,0.38245934248,-9.722363750960001,-0.7813578565420001
1711569293072409630,0.0,0.0,-0.00349065847695,0.38245934248,-9.7272954918,-0.7591649927869999
1711569293074912548,-0.00174532923847,0.0,-0.00523598771542,0.384475314827,-9.71408433767,-0.7651919259550001
1711569293077415228,-0.00349065847695,0.0,-0.00349065847695,0.38694142154399996,-9.69682159066,-0.777522474526
1711569293079918146,-0.00523598771542,0.0,0.0,0.389407763195,-9.6795571991,-0.78985419777
1711569293082420826,-0.00349065847695,0.0,0.0,0.391873869911,-9.66229445209,-0.802184746341
1711569293084923506,-0.00174532923847,0.0,0.0,0.402634758135,-9.67406598239,-0.7875552293320001
1711569293087426424,0.0,0.0,-0.00174532923847,0.414965011915,-9.69132830621,-0.76782682928
1711569293089929104,0.0,0.0,-0.00174532923847,0.427294091161,-9.70858898568,-0.7481003084819999
1711569293092432022,0.0,-0.00174532923847,-0.00174532923847,0.43962434493999997,-9.725851309489999,-0.72837190843
1711569293094934702,0.0,-0.00174532923847,0.0,0.432775672818,-9.71967260001,-0.7214303083750001
1711569293097437859,0.0,0.0,0.0,0.422910296852,-9.70980723904,-0.716497612897
1711569293099940538,0.0,0.0,-0.00174532923847,0.413046800184,-9.69994375736,-0.71156585707
1711569293102443457,0.0,0.00174532923847,-0.00349065847695,0.403182363868,-9.690079336030001,-0.706633631417
1711569293104946136,0.0,0.00174532923847,-0.00349065847695,0.408637655382,-9.682404608310001,-0.7192088019930001
1711569293107448816,-0.00174532923847,0.0,-0.00349065847695,0.41603492723499996,-9.67500735145,-0.7340033456999999
1711569293109951735,-0.00349065847695,0.0,-0.00174532923847,0.423432903792,-9.66760938988,-0.748799298813
1711569293112454414,-0.00349065847695,0.0,0.0,0.430830175645,-9.66021213301,-0.7635938425200001
1711569293114957333,0.0,0.0,0.0,0.438229113547,-9.67975924271,-0.762673181673
1711569293117460012,0.00349065847695,0.0,0.0,0.44562744119099995,-9.701954203160001,-0.760207074957
1711569293119962931,0.00523598771542,0.0,0.00174532923847,0.453026473639,-9.724151278019999,-0.7577407333059999
1711569293122465611,0.00349065847695,0.0,0.00349065847695,0.46042480128200003,-9.746346238460001,-0.75527462659
1711569293124968529,0.0,-0.00174532923847,0.00523598771542,0.451698547234,-9.73629195457,-0.7850574783290001
1711569293127471209,-0.00349065847695,-0.00349065847695,0.00349065847695,0.441835286834,-9.72396289781,-0.81711307088
1711569293129973888,-0.00523598771542,-0.00349065847695,0.00349065847695,0.431972026435,-9.71163384104,-0.849168663431
1711569293132476807,-0.00523598771542,-0.00174532923847,0.0,0.422107826409,-9.69930360974,-0.8812273097679999
1711569293134979486,-0.00349065847695,0.0,0.0,0.428767133318,-9.70349703505,-0.8755172604700001
1711569293137482405,0.0,0.0,0.0,0.43616546430200004,-9.70842924572,-0.868118929485
1711569293139985085,0.00174532923847,0.0,0.0,0.44356309055,-9.71336098656,-0.8607213032369999
1711569293142488003,0.00349065847695,-0.00174532923847,0.0,0.45096142153499996,-9.71829319722,-0.8533229722519999
1711569293144990683,0.00174532923847,-0.00349065847695,0.00174532923847,0.446270574185,-9.72322482223,-0.8604314825130001
1711569293147493601,0.0,-0.00349065847695,0.00174532923847,0.441338474172,-9.72815691475,-0.867829636279
1711569293149996281,-0.00174532923847,-0.00174532923847,0.00349065847695,0.436406843972,-9.73308853746,-0.875227085326
1711569293152498960,-0.00523598771542,0.0,0.00523598771542,0.431449143285,-9.7379332515,-0.88268536688
1711569293155001879,-0.00523598771542,0.0,0.00523598771542,0.419120070819,-9.71820677152,-0.907343511813
1711569293157504559,-0.00523598771542,-0.00174532923847,0.0069813169539,0.40679217277400004,-9.698482170619998,-0.931999307903
1711569293160007477,-0.00174532923847,-0.00174532923847,0.0069813169539,0.394463100308,-9.67875569064,-0.956657452835
1711569293162510157,0.0,-0.00174532923847,0.0069813169539,0.38245934248,-9.660133234339998,-0.979886939031
1711569293165014267,0.00174532923847,-0.00174532923847,0.00523598771542,0.38245934248,-9.68233875337,-0.950279535344
1711569293167515755,0.00349065847695,-0.00174532923847,0.00349065847695,0.38245934248,-9.70452101611,-0.9207031400769999
1711569293170018911,0.00349065847695,0.0,0.00349065847695,0.38245934248,-9.72671807831,-0.8911070121789999
1711569293172521591,0.0,0.0,0.00174532923847,0.381847410472,-9.74646316213,-0.864209057745
1711569293175024271,-0.00174532923847,0.0,0.00349065847695,0.369518331226,-9.71933923725,-0.8888672162369999
1711569293177527189,-0.00523598771542,-0.00174532923847,0.00174532923847,0.357188077446,-9.6922127284,-0.913527723796
1711569293180029869,-0.00349065847695,-0.00174532923847,0.00174532923847,0.3448589982,-9.66508880351,-0.938185882288
1711569293182532787,0.0,-0.00174532923847,0.0,0.334323431769,-9.64191059963,-0.958180202525
1711569293185035467,0.00174532923847,0.0,0.0,0.346652511014,-9.669034524510002,-0.918727145941
1711569293187538385,0.00523598771542,0.0,0.0,0.35898276479400004,-9.696161033360001,-0.8792703308490001
1711569293190042019,0.00523598771542,0.0,0.00349065847695,0.371316542174,-9.72329529412,-0.8398022402330001
1711569293192543983,0.00349065847695,-0.00174532923847,0.00523598771542,0.38174962113000005,-9.74733626349,-0.803908703243
1711569293195047617,0.00174532923847,-0.00349065847695,0.00349065847695,0.374348644076,-9.742402288780001,-0.801441715889
1711569293197549582,0.00174532923847,-0.00174532923847,0.0,0.366952600537,-9.737471603080001,-0.7989763730380001
1711569293200053215,0.00174532923847,0.0,-0.00174532923847,0.359551623483,-9.73253762837,-0.796509385684
1711569293202554941,0.00349065847695,0.00174532923847,-0.00349065847695,0.354805455278,-9.726430076289999,-0.793749952491
1711569293205058813,0.00349065847695,0.00174532923847,-0.00349065847695,0.369607755145,-9.71162780641,-0.7888158475370001
1711569293207560539,0.00174532923847,0.0,-0.00523598771542,0.384397369743,-9.69683822178,-0.783885971011
1711569293210063457,0.0,0.0,-0.00523598771542,0.399194031713,-9.68204158979,-0.778953745358
1711569293212566137,0.0,0.0,-0.00349065847695,0.412582695825,-9.671114830339999,-0.7729668316060001
1711569293215069056,0.00174532923847,0.0,0.0,0.41751538662199994,-9.6834465386,-0.760635108361
1711569293217572689,0.00174532923847,0.0,0.0,0.42244948702699997,-9.695781770870001,-0.7482998610959999
1711569293220074654,0.0,0.0,0.0,0.427380298346,-9.708108780429999,-0.735972836546
1711569293222578287,0.0,-0.00174532923847,0.0,0.43149259686499997,-9.71756773016,-0.725692093372
1711569293225081205,-0.00349065847695,-0.00174532923847,-0.00174532923847,0.43149259686499997,-9.71263516502,-0.725692093372
1711569293227583885,-0.00174532923847,-0.00174532923847,-0.00174532923847,0.43149259686499997,-9.70770306975,-0.725692093372
1711569293230086803,0.0,-0.00174532923847,-0.00523598771542,0.43149259686499997,-9.702770504610001,-0.725692093372
1711569293232589483,0.0,0.0,-0.00349065847695,0.43149259686499997,-9.69690057356,-0.7261610112620001
1711569293235092402,0.0,0.0,-0.00174532923847,0.43149259686499997,-9.68703544329,-0.728627293829
1711569293237595320,-0.00174532923847,0.0,0.0,0.43149259686499997,-9.67717031302,-0.731093576395
1711569293240098000,-0.00349065847695,-0.00174532923847,0.0,0.43149259686499997,-9.66730612247,-0.733559624034
1711569293242600918,-0.00349065847695,-0.00349065847695,0.0,0.43096545291500005,-9.66271256722,-0.7365530142669999
1711569293245103598,-0.00174532923847,-0.00349065847695,0.0,0.428499575001,-9.67750778974,-0.741484770095
1711569293247606516,0.0,-0.00349065847695,0.00174532923847,0.426033462175,-9.69230442173,-0.746416995748
1711569293250109196,0.00174532923847,-0.00174532923847,0.00349065847695,0.423567584261,-9.70709964425,-0.751348751575
1711569293252612114,0.0,0.0,0.00174532923847,0.422270438703,-9.71780500825,-0.7592035790899999
1711569293255114794,0.0,0.0,0.0,0.424736493836,-9.715338960610001,-0.776465942534
1711569293257617474,0.0,0.0,0.0,0.427202548968,-9.712872912969999,-0.793728305977
1711569293260120392,0.0,0.00174532923847,0.0,0.42966883903,-9.71040663041,-0.8109923139249999
1711569293262623072,0.0,0.00349065847695,0.0,0.43149259686499997,-9.70858287811,-0.8256853497069999
1711569293265125990,0.0,0.00174532923847,0.0,0.43149259686499997,-9.70858287811,-0.833083665703
1711569293267628670,-0.00174532923847,0.0,0.0,0.43149259686499997,-9.70858287811,-0.840481276963
1711569293270131588,-0.00523598771542,0.0,0.0,0.43149259686499997,-9.70858287811,-0.8478795929590001
1711569293272634268,-0.00523598771542,-0.00174532923847,0.0,0.43289166735600004,-9.70998194648,-0.8538780395640001
1711569293275137186,-0.00349065847695,0.0,0.0,0.43782364922899997,-9.71491392086,-0.856344041741
1711569293277639866,0.0,0.0,0.00174532923847,0.44275516130000003,-9.71984542543,-0.8588098090170001
1711569293280142784,0.0,0.0,0.00349065847695,0.447687143173,-9.72477739981,-0.861275811195
1711569293282645464,0.0,0.0,0.00523598771542,0.444298133735,-9.72365764582,-0.8675236966140001
1711569293285148144,0.0,-0.00174532923847,0.00523598771542,0.42210526248499997,-9.708862423300001,-0.882318934121
1711569293287651062,0.0,-0.00349065847695,0.00349065847695,0.399910277025,-9.69406579131,-0.8971155811020001
1711569293290153742,0.0,-0.00349065847695,0.00349065847695,0.37771740577600005,-9.679270568789999,-0.91191081861
1711569293292656660,0.00174532923847,-0.00174532923847,0.00523598771542,0.36772834648900005,-9.67912101003,-0.918570184772
1711569293295159340,0.00349065847695,-0.00349065847695,0.00523598771542,0.382523237088,-9.70871098606,-0.9087069243729999
1711569293297662258,0.00174532923847,-0.00349065847695,0.00523598771542,0.397319537127,-9.73830378099,-0.898842724347
1711569293300164938,-0.00174532923847,-0.00349065847695,0.00523598771542,0.41211442772600004,-9.76789375702,-0.8889794639480001
1711569293302667856,-0.00523598771542,-0.00523598771542,0.00523598771542,0.41558960994499994,-9.77310238012,-0.890436593004
1711569293305170536,-0.0069813169539,-0.00523598771542,0.00174532923847,0.398326832952,-9.73364443283,-0.912631598418
1711569293307673693,-0.00349065847695,-0.00523598771542,0.0,0.381060766872,-9.6941789676,-0.93483083266
1711569293310176373,0.00349065847695,-0.00174532923847,0.0,0.36379798987899997,-9.65472102032,-0.9570258380750001
1711569293312679052,0.0104719754308,0.0,0.00174532923847,0.34746504909599996,-9.639420358019999,-0.957851551489
1711569293315181971,0.012217304669299999,0.00174532923847,0.00523598771542,0.332668749057,-9.664080820610002,-0.9233268439040001
1711569293317684650,0.0069813169539,0.0,0.00523598771542,0.31787385845800004,-9.68873893414,-0.8888054250130001
1711569293320187569,0.0,-0.00174532923847,0.00174532923847,0.30307755841899997,-9.71339939674,-0.8542807174279999
1711569293322690248,-0.00523598771542,-0.00349065847695,0.0,0.307020521946,-9.729182375219999,-0.835537697362
1711569293325193167,-0.00523598771542,-0.00174532923847,-0.00174532923847,0.33908224778000007,-9.73164865778,-0.840470262496
1711569293327695847,-0.00174532923847,0.0,0.0,0.371140919535,-9.73411470542,-0.845402357772
1711569293330198765,0.0,-0.00174532923847,0.0,0.40320264536899997,-9.73658098799,-0.850334922906
1711569293332701445,0.00174532923847,-0.00523598771542,0.0,0.41542082365099997,-9.73487022665,-0.845869204058
1711569293335204363,0.0,-0.00523598771542,0.0,0.40062416917599997,-9.72747191066,-0.8286064367560001
1711569293337707043,0.0,-0.00349065847695,0.0,0.385828924175,-9.7200742994,-0.8113453138410001
1711569293340209961,0.0,0.0,-0.00174532923847,0.371032269699,-9.7126759834,-0.794082546539
1711569293342712641,0.00174532923847,0.0,-0.00523598771542,0.367251955804,-9.71188730493,-0.782328999739
1711569293345215321,0.00349065847695,0.00174532923847,-0.00349065847695,0.37711521620399996,-9.71928473899,-0.777397377033
1711569293347718239,0.0,0.00174532923847,0.0,0.386979416229,-9.72668287777,-0.772465284514
1711569293350220919,-0.00523598771542,0.0,0.0,0.396842676629,-9.73408031183,-0.7675336618080001
1711569293352723837,-0.0069813169539,-0.00174532923847,-0.00174532923847,0.40786543800999997,-9.73568566143,-0.763760127124
1711569293355226517,-0.00349065847695,-0.00349065847695,-0.00349065847695,0.420194517256,-9.73075403872,-0.7612943157709999
1711569293357729435,0.0,-0.00174532923847,-0.00523598771542,0.432524771036,-9.72582194621,-0.7588282695119999
1711569293360232115,0.00523598771542,-0.00174532923847,-0.00349065847695,0.44485385028200003,-9.7208903235,-0.7563624581589999
1711569293362735033,0.008726646192370001,0.0,-0.00349065847695,0.445027535655,-9.711095496,-0.750249367839
1711569293365237713,0.00523598771542,0.0,-0.00174532923847,0.432698161074,-9.69630027348,-0.740385871172
1711569293367740631,0.00174532923847,0.0,-0.00174532923847,0.420367611931,-9.68150364149,-0.730521434855
1711569293370243311,0.0,0.0,0.0,0.40803823734899997,-9.66670841897,-0.720657938187
1711569293372745991,0.0,0.00174532923847,0.0,0.40970971538400003,-9.66718677864,-0.720976845117
1711569293375250101,0.00174532923847,0.00174532923847,0.0,0.424514481145,-9.681991521910001,-0.730846688958
1711569293377752781,0.00174532923847,0.0,0.0,0.43931078945600005,-9.69678780773,-0.740710894499
1711569293380255699,0.0,-0.00174532923847,0.00174532923847,0.45410850734200003,-9.711585503139998,-0.7505760397560001
1711569293382757425,-0.00523598771542,-0.00174532923847,0.00349065847695,0.45691948880000005,-9.71705850017,-0.760436103799
1711569293385261297,-0.00523598771542,-0.00174532923847,0.00174532923847,0.449518346363,-9.71459145519,-0.770304298713
1711569293387763977,-0.00349065847695,-0.00174532923847,0.0,0.442120727609,-9.71212558477,-0.78016779538
1711569293390265942,0.0,-0.00349065847695,0.0,0.43472522306500005,-9.70966041909,-0.790028473101
1711569293392769575,0.0,-0.00349065847695,0.0,0.425935774049,-9.70858287811,-0.801284664682
1711569293395271540,0.0,-0.00174532923847,0.0,0.416075561228,-9.70858287811,-0.813609917599
1711569293397774220,-0.00349065847695,-0.00174532923847,0.0,0.40621252959200005,-9.70858287811,-0.82593869403
1711569293400278091,-0.00523598771542,-0.00349065847695,0.0,0.396344799933,-9.70858287811,-0.838273342985
1711569293402780771,-0.00523598771542,-0.00349065847695,-0.00174532923847,0.40238978753300003,-9.71581415988,-0.843371868134
1711569293405283689,-0.00174532923847,-0.00349065847695,0.0,0.41965420906900003,-9.728145868139999,-0.843371868134
1711569293407786369,0.0,-0.00174532923847,0.0,0.436916986062,-9.740476401719999,-0.843371868134
1711569293410289049,0.00349065847695,-0.00349065847695,0.00349065847695,0.454179763054,-9.752806935299999,-0.843371868134
1711569293412791967,0.00174532923847,-0.00349065847695,0.00349065847695,0.447373119397,-9.74708541156,-0.858415654895
1711569293415294647,0.0,-0.00349065847695,0.00523598771542,0.42518024814800004,-9.72982431862,-0.883074404058
1711569293417797565,-0.00174532923847,-0.00174532923847,0.00523598771542,0.402985262688,-9.7125615813,-0.9077355023450001
1711569293420300245,-0.00174532923847,0.0,0.00523598771542,0.380792391438,-9.69530048835,-0.932394251508
1711569293422803164,0.0,0.0,0.00523598771542,0.38202264086300003,-9.70302467729,-0.9351917392799999
1711569293425305843,0.0,0.0,0.00523598771542,0.39681753895599997,-9.725217219260001,-0.925328478881
1711569293427808762,0.0,0.0,0.00523598771542,0.411613846489,-9.74741187541,-0.915464278855
1711569293430311441,0.0,0.0,0.00349065847695,0.426408744581,-9.76960441738,-0.9056010184550001
1711569293432814360,0.0,-0.00174532923847,0.00349065847695,0.41530362357699996,-9.751327795289999,-0.91030626704
1711569293435317039,-0.00174532923847,-0.00349065847695,0.00349065847695,0.390643102231,-9.71187079327,-0.922636520219
1711569293437819958,0.0,-0.00523598771542,0.00174532923847,0.365980231592,-9.67241003236,-0.934967948043
1711569293440322638,0.00174532923847,-0.00349065847695,0.00174532923847,0.341319710246,-9.63295303033,-0.9472982012219999
1711569293442825556,0.0069813169539,0.0,0.00349065847695,0.336779615423,-9.64212107566,-0.9378309005859999
1711569293445328474,0.0069813169539,0.00174532923847,0.0069813169539,0.341711715436,-9.67417967704,-0.918102500534
1711569293447831154,0.00174532923847,0.0,0.0069813169539,0.346643345636,-9.70623522462,-0.898375979736
1711569293450334072,-0.00349065847695,-0.00174532923847,0.00523598771542,0.351575445649,-9.738293826,-0.878647579684
1711569293452836752,-0.00523598771542,-0.00349065847695,0.0,0.36170799348399996,-9.74954312885,-0.8658569411560001
1711569293455339670,-0.00523598771542,-0.00349065847695,0.0,0.374037361257,-9.75200899791,-0.8559934499349999
1711569293457842350,0.0,-0.00174532923847,0.0,0.38636555458099997,-9.75447463208,-0.8461308982729999
1711569293460345268,0.00174532923847,-0.00174532923847,0.00174532923847,0.398694922354,-9.756940501139999,-0.836267407052
1711569293462847948,0.00349065847695,-0.00349065847695,0.00174532923847,0.380588406034,-9.74150289748,-0.8299845252310001
1711569293465350866,0.0,-0.00523598771542,0.00174532923847,0.35099367174199997,-9.7193068861,-0.8250520632699999
1711569293467853546,0.0,-0.00523598771542,0.0,0.321401756532,-9.697112989039999,-0.820120071156
1711569293470356464,0.0,-0.00523598771542,-0.00174532923847,0.29180702224,-9.67491697767,-0.8151876091949999
1711569293472859144,0.00174532923847,-0.00349065847695,-0.00349065847695,0.31581052767900003,-9.684141116860001,-0.7991671163449999
1711569293475361824,0.00174532923847,0.0,-0.00523598771542,0.35773140394599995,-9.70386855278,-0.77943965045
1711569293477864742,0.0,0.0,-0.00523598771542,0.399656273819,-9.723597868039999,-0.759710305212
1711569293480367422,-0.00174532923847,0.0,-0.00523598771542,0.441577150087,-9.74332530396,-0.739982839317
1711569293482870102,-0.00349065847695,0.0,-0.00523598771542,0.443484398758,-9.73447181604,-0.7431202202680001
1711569293485372782,-0.00349065847695,0.0,-0.00349065847695,0.43362090209,-9.7172107231,-0.752983716936
1711569293487875700,-0.00174532923847,0.0,-0.00174532923847,0.42375646577299997,-9.69994798577,-0.7628481532529999
1711569293490378380,0.0,0.0,0.0,0.413892969106,-9.68268689283,-0.77271164992
1711569293492881060,0.0,0.0,0.0,0.407954380791,-9.67523807077,-0.764913035146
1711569293495383739,0.0,-0.00174532923847,0.0,0.40302262496299995,-9.67030632993,-0.752583668058
1711569293497886658,0.0,-0.00174532923847,-0.00174532923847,0.39809039931,-9.66537411927,-0.740253126409
1711569293500389338,0.0,-0.00174532923847,-0.00523598771542,0.393158643483,-9.66044237843,-0.727923759321
1711569293502892017,0.0,0.0,-0.00349065847695,0.40640310308100003,-9.669647643889999,-0.7216529087960001
1711569293505394697,0.00174532923847,0.0,-0.00349065847695,0.423664639486,-9.681977291339999,-0.7167210348280001
1711569293507897377,0.0,0.00174532923847,-0.00174532923847,0.440926175891,-9.69430693879,-0.711789160861
1711569293510400295,0.0,0.00174532923847,0.0,0.458189356721,-9.70663776082,-0.7068568170559999
1711569293512902975,-0.00349065847695,0.0,-0.00174532923847,0.448450473469,-9.70235186149,-0.724771855521
1711569293515405655,-0.00523598771542,0.0,0.0,0.433654165158,-9.69495371857,-0.7469663292290001
1711569293517908335,-0.00174532923847,0.0,0.0,0.418857856847,-9.687555575660001,-0.7691608029379999
1711569293520411491,0.0,0.0,0.0,0.404058729386,-9.68015602317,-0.791359505373
1711569293522914171,0.00349065847695,0.0,0.00349065847695,0.404207575428,-9.68983763246,-0.794338643551
1711569293525416851,0.00174532923847,0.0,0.00349065847695,0.40667351241099997,-9.70216727991,-0.794338643551
1711569293527919531,0.0,-0.00174532923847,0.00349065847695,0.40913944939499997,-9.71449692736,-0.794338643551
1711569293530422449,-0.00523598771542,-0.00523598771542,0.00349065847695,0.41160562129699996,-9.726827749389999,-0.794338643551
1711569293532925129,-0.00523598771542,-0.00523598771542,0.00174532923847,0.41845668962099997,-9.72600368348,-0.8074934206509999
1711569293535427809,-0.00349065847695,-0.0069813169539,0.0,0.425855194508,-9.72353751768,-0.822290430425
1711569293537930489,0.0,-0.00523598771542,0.0,0.433253699396,-9.721071351880001,-0.8370874401999999
1711569293540433407,0.0,-0.00349065847695,0.00174532923847,0.440652909104,-9.71860495114,-0.851885859616
1711569293542936087,0.00174532923847,0.0,0.00349065847695,0.434547369242,-9.71613889318,-0.8666822360449999
1711569293545438766,0.0,0.0,0.00349065847695,0.427149218833,-9.71367284554,-0.881478551851
1711569293547941446,-0.00174532923847,-0.00174532923847,0.00523598771542,0.419751068425,-9.71120679791,-0.896274867656
1711569293550444126,-0.00523598771542,-0.00349065847695,0.00523598771542,0.412352918016,-9.70874075027,-0.911071183462
1711569293552947044,-0.00349065847695,-0.00523598771542,0.00523598771542,0.411879301071,-9.71089117793,-0.9050935048350001
1711569293555449724,0.0,-0.00349065847695,0.00349065847695,0.411879301071,-9.71335710742,-0.897695701377
1711569293557952404,0.00174532923847,-0.00174532923847,0.00349065847695,0.411879301071,-9.71582303691,-0.8902978979189999
1711569293560455084,0.00349065847695,0.0,0.00349065847695,0.411879301071,-9.7182889664,-0.882900094462
1711569293562958002,0.00174532923847,0.0,0.00349065847695,0.40241702738300006,-9.708927258989998,-0.9015230070970001
1711569293565460682,0.0,0.0,0.00174532923847,0.392553523221,-9.69906377731,-0.9212500154200001
1711569293567964315,-0.00349065847695,-0.00349065847695,0.00349065847695,0.38268626046099996,-9.68919653704,-0.940984540942
1711569293570466995,-0.00523598771542,-0.00349065847695,0.00349065847695,0.372822756299,-9.67933305536,-0.9607115492649999
1711569293572968960,-0.00523598771542,-0.00523598771542,0.00349065847695,0.37992133075199996,-9.68643161547,-0.94651440036
1711569293575472593,0.0,-0.00349065847695,0.00174532923847,0.38732248510899997,-9.69383275483,-0.931712091646
1711569293577975273,0.00174532923847,-0.00174532923847,0.00174532923847,0.394720820247,-9.70123107498,-0.91691542137
1711569293580477953,0.00523598771542,0.0,0.00523598771542,0.40193308364299996,-9.70856737207,-0.902165267091
1711569293582980871,0.00523598771542,-0.00174532923847,0.0069813169539,0.37973543952699995,-9.70610097133,-0.894766049887
1711569293585482597,0.00174532923847,-0.00523598771542,0.00523598771542,0.35754836773299997,-9.703635745289999,-0.8873703567919999
1711569293587986231,0.0,-0.0069813169539,0.00349065847695,0.335344380225,-9.70116863974,-0.879969025123
1711569293590488911,0.0,-0.00523598771542,0.00174532923847,0.314107877463,-9.69855493158,-0.872718055547
1711569293592991829,0.0,-0.00174532923847,0.00349065847695,0.323973495405,-9.69115572937,-0.870251654809
1711569293595494747,0.0,-0.00174532923847,0.00349065847695,0.333839113346,-9.683756527160002,-0.867785254071
1711569293597997427,0.0,0.0,0.0,0.343703791525,-9.676358029760001,-0.865319088274
1711569293600500107,0.0,-0.00174532923847,0.0,0.35330391412199996,-9.67014993562,-0.8611334816940001
1711569293603002787,0.00174532923847,-0.00174532923847,-0.00174532923847,0.35823601689199996,-9.68494622145,-0.826608754807
1711569293605505705,0.00349065847695,0.0,0.0,0.363168589521,-9.69974391685,-0.7920807389110001
1711569293608008385,0.00523598771542,0.0,0.0,0.36810069229099995,-9.71454020268,-0.757556012024
1711569293610510111,0.00349065847695,0.0,-0.00174532923847,0.373220061073,-9.72743963711,-0.726826855006
1711569293613013744,0.00174532923847,0.0,-0.00174532923847,0.380621392742,-9.71757121488,-0.741629503348
1711569293615516663,0.0,0.0,-0.00349065847695,0.388020609945,-9.70770561193,-0.756427922764
1711569293618019342,-0.00349065847695,0.0,-0.00349065847695,0.395419122327,-9.69784094874,-0.771224932539
1711569293620522022,-0.00349065847695,0.0,-0.00349065847695,0.403314179772,-9.689962843510001,-0.783042102359
1711569293623024702,-0.00174532923847,0.0,-0.00349065847695,0.415643849704,-9.69982656147,-0.768246510432
1711569293625527620,0.0,0.0,-0.00349065847695,0.427974694225,-9.7096912191,-0.753449508998
1711569293628030300,0.0,-0.00174532923847,-0.00174532923847,0.440304364156,-9.719554937060002,-0.738653917071
1711569293630532980,0.0,-0.00174532923847,0.0,0.44927203471199995,-9.72575100513,-0.726303378116
1711569293633035660,0.0,-0.00349065847695,0.0,0.434475718906,-9.70602262403,-0.731235473392
1711569293635538578,0.0,-0.00349065847695,0.0,0.419677993525,-9.686292363489999,-0.7361680385259999
1711569293638041258,0.0,0.0,-0.00349065847695,0.40488167772,-9.66656398239,-0.741100133802
1711569293640543938,0.0,0.0,-0.00523598771542,0.394083240144,-9.65228724604,-0.746032266115
1711569293643046618,0.0,0.00349065847695,-0.00523598771542,0.406414091616,-9.669550406619999,-0.750964612699
1711569293645549297,0.0,0.00349065847695,-0.00174532923847,0.41874494308700005,-9.6868135672,-0.7558969592829999
1711569293648052216,-0.00174532923847,0.00174532923847,0.0,0.43107696926100003,-9.704078372360001,-0.760829775749
1711569293650554895,-0.00523598771542,0.0,0.0,0.44129922986000003,-9.7179677937,-0.7661838397390001
1711569293653057575,-0.00523598771542,0.0,0.00174532923847,0.44129922986000003,-9.71550162791,-0.773582352121
1711569293655560255,0.0,0.0,0.00174532923847,0.44129922986000003,-9.713035462110001,-0.780980864503
1711569293658063173,0.00174532923847,0.0,0.0,0.44129922986000003,-9.71056906137,-0.788380081707
1711569293660565853,0.00349065847695,0.0,0.0,0.43793950722400005,-9.70906283766,-0.7967384441840001
1711569293663068533,0.0,0.0,0.0,0.42067714378,-9.711528885289999,-0.809068697363
1711569293665571213,-0.00174532923847,-0.00174532923847,0.0,0.40341478033699996,-9.71399493293,-0.821398950542
1711569293668074131,-0.00523598771542,-0.00523598771542,0.0,0.386150772389,-9.716461215499999,-0.8337303783660001
1711569293670576811,-0.00523598771542,-0.00523598771542,0.0,0.37641713078199995,-9.7189272889,-0.845522982581
1711569293673079491,-0.00349065847695,-0.00349065847695,0.0,0.393680321343,-9.721393454700001,-0.8553876607600001
1711569293675582170,0.0,0.0,0.00174532923847,0.41094351190399997,-9.723859620499999,-0.86525233894
1711569293678084850,0.0,0.0,0.00174532923847,0.428206702466,-9.7263257863,-0.8751170171189999
1711569293680588007,0.0,0.0,0.00523598771542,0.438914114759,-9.72759986623,-0.882598459721
1711569293683090687,0.0,-0.00349065847695,0.00523598771542,0.42904943657899997,-9.725133700439999,-0.882598459721
1711569293685593367,0.0,-0.00349065847695,0.00523598771542,0.4191847584,-9.72266753464,-0.882598459721
1711569293688096046,0.0,-0.00174532923847,0.00349065847695,0.40932008022,-9.72020136884,-0.882598459721
1711569293690598965,0.0,0.0,0.00349065847695,0.402072638273,-9.717735062180001,-0.888488512034
1711569293693101645,-0.00174532923847,0.0,0.00349065847695,0.402072638273,-9.71526925082,-0.910680859172
1711569293695604324,-0.00349065847695,-0.00174532923847,0.00349065847695,0.402072638273,-9.712803439470001,-0.932873206311
1711569293698107004,-0.00349065847695,-0.00523598771542,0.00523598771542,0.402072638273,-9.71033762812,-0.95506555345
1711569293700609922,-0.00349065847695,-0.00523598771542,0.0069813169539,0.400649839115,-9.70573728412,-0.9658785373600001
1711569293703112602,0.0,-0.00523598771542,0.0069813169539,0.395717500025,-9.69587262093,-0.9486153467990001
1711569293705615282,0.00174532923847,-0.00349065847695,0.00349065847695,0.39078516093599996,-9.68600795774,-0.931352156237
1711569293708117962,0.00523598771542,0.0,0.00174532923847,0.385852821846,-9.67614329455,-0.914088965676
1711569293710620642,0.00523598771542,0.0,0.0,0.378612192001,-9.67012577482,-0.902211785316
1711569293713123560,0.00349065847695,0.0,0.00174532923847,0.366280165827,-9.672592175560002,-0.902211785316
1711569293715626240,0.0,-0.00174532923847,0.00349065847695,0.35394931435599997,-9.67505834136,-0.902211785316
1711569293718128920,-0.00523598771542,-0.00349065847695,0.00174532923847,0.341618462884,-9.677524507160001,-0.902211785316
1711569293720631599,-0.00523598771542,-0.00523598771542,0.0,0.340875166657,-9.685784371110001,-0.8989010842919999
1711569293723134518,-0.00174532923847,-0.00349065847695,0.0,0.363072278991,-9.70551510432,-0.889035702698
1711569293725637197,0.00174532923847,0.0,0.0,0.38526727691,-9.72524395805,-0.879171260844
1711569293728139877,0.00349065847695,0.0,0.00174532923847,0.40746227483,-9.74497281178,-0.869306818989
1711569293730642557,0.00349065847695,-0.00174532923847,0.00174532923847,0.411943187086,-9.75053042067,-0.857670966146
1711569293733145475,0.0,-0.00349065847695,0.00174532923847,0.384813383956,-9.730799687460001,-0.842872886261
1711569293735648155,0.0,-0.00349065847695,0.0,0.357686165109,-9.71107083373,-0.8280762159839999
1711569293738150835,0.0,-0.00174532923847,0.0,0.330558946262,-9.69134198,-0.8132795457080001
1711569293740653515,0.00174532923847,0.0,-0.00174532923847,0.322306594588,-9.68199424177,-0.800370253945
1711569293743156195,0.00174532923847,0.0,-0.00523598771542,0.34450212424000004,-9.68939273917,-0.790505575766
1711569293745659113,0.0,0.0,-0.00523598771542,0.366699768355,-9.69679194138,-0.780639957824
1711569293748161793,0.0,0.0,-0.00523598771542,0.388895298006,-9.70419043877,-0.7707752796449999
1711569293750664473,-0.00174532923847,-0.00174532923847,-0.00349065847695,0.406080241711,-9.70958477745,-0.7609110815219999
1711569293753167152,0.0,-0.00174532923847,0.0,0.415943738379,-9.712050647869999,-0.751047584854
1711569293755670071,0.0,-0.00174532923847,0.0,0.425808174696,-9.7145167532,-0.741183148537
1711569293758172750,0.00174532923847,0.0,0.0,0.435671671363,-9.71698262362,-0.731319651869
1711569293760676622,0.0,-0.00174532923847,0.0,0.434937665686,-9.709907438430001,-0.72887287707
1711569293763178110,0.0,-0.00349065847695,-0.00349065847695,0.420148050948,-9.690187982080001,-0.736267688185
1711569293765681267,-0.00174532923847,-0.00349065847695,-0.00174532923847,0.405348568949,-9.6704553694,-0.743667432932
1711569293768184900,-0.00174532923847,-0.00349065847695,-0.00349065847695,0.390546267733,-9.65071899776,-0.7510685872890001
1711569293770687580,0.0,-0.00174532923847,-0.00349065847695,0.391405873514,-9.651119593939999,-0.7506387864470001
1711569293773189306,0.00174532923847,-0.00174532923847,-0.00349065847695,0.41112771178,-9.675771854319999,-0.740777867314
1711569293775691986,0.0,-0.00174532923847,-0.00349065847695,0.430857068139,-9.70043351229,-0.7309131891339999
1711569293778195858,0.0,-0.00349065847695,-0.00174532923847,0.450595822114,-9.72510691727,-0.721043812146
1711569293780698538,-0.00349065847695,-0.00349065847695,-0.00174532923847,0.45855941882299994,-9.73329657059,-0.7241213289210001
1711569293783201218,-0.00349065847695,-0.00349065847695,0.0,0.453627197896,-9.72343214372,-0.741384090925
1711569293785703897,0.0,-0.00174532923847,0.0,0.44869497696800004,-9.713567716860002,-0.7586468529289999
1711569293788206816,0.00174532923847,0.0,0.0,0.44376228617200003,-9.70370235025,-0.7759112594750001
1711569293790709496,0.00174532923847,0.0,0.00349065847695,0.435126168559,-9.70124546514,-0.7882357884819999
1711569293793212175,0.0,0.0,0.00349065847695,0.422795317087,-9.70617779673,-0.795634300864
1711569293795714855,-0.00174532923847,-0.00174532923847,0.00349065847695,0.410464465615,-9.71111012833,-0.803032813246
1711569293798217773,-0.00349065847695,-0.00174532923847,0.00174532923847,0.398132439441,-9.7160429298,-0.810432030449
1711569293800720453,-0.00349065847695,-0.00174532923847,0.0,0.400023799623,-9.71968247918,-0.820416765618
1711569293803223133,-0.00174532923847,-0.00174532923847,0.0,0.41482188795100006,-9.72214882224,-0.832748510889
1711569293805725813,0.0,0.0,0.0,0.42961997628,-9.7246151653,-0.845080256159
1711569293808228731,0.0,0.0,0.0,0.44441947435400003,-9.72708174331,-0.8574131762180001
1711569293810731411,0.0,0.0,0.0,0.44705083488700004,-9.7281961441,-0.862985193729
1711569293813234091,0.0,-0.00174532923847,0.0,0.439653208639,-9.7281961441,-0.862985193729
1711569293815736771,0.0,0.0,0.0,0.43225558239100004,-9.7281961441,-0.862985193729
1711569293818239450,0.0,0.0,0.00174532923847,0.424857956144,-9.7281961441,-0.862985193729
1711569293820742369,0.0,0.0,0.00349065847695,0.41745911890500004,-9.72256040197,-0.875665630652
1711569293823245049,0.0,0.0,0.00523598771542,0.410060606523,-9.71269573878,-0.897861152808
1711569293825747728,-0.00174532923847,-0.00174532923847,0.00523598771542,0.402662094141,-9.70283107559,-0.920056674965
1711569293828250408,-0.00349065847695,-0.00174532923847,0.00523598771542,0.39526358175899995,-9.6929664124,-0.942252197121
1711569293830753326,-0.00174532923847,0.0,0.00523598771542,0.395200034268,-9.693370686939998,-0.9439098762929999
1711569293833256006,0.0,0.0,0.00523598771542,0.400131790095,-9.7007682982,-0.9315805092049999
1711569293835758686,0.00174532923847,0.00174532923847,0.00523598771542,0.405063545923,-9.708165909460002,-0.919251142118
1711569293838261366,0.00349065847695,0.00174532923847,0.00523598771542,0.40999530175099996,-9.71556352072,-0.9069217750299999
1711569293840764046,0.00349065847695,0.0,0.00349065847695,0.40425918892499996,-9.71229343251,-0.903735804967
1711569293843267202,0.0,0.0,0.00174532923847,0.39192628351099995,-9.702427126169999,-0.9062023815520001
1711569293845769882,0.0,-0.00349065847695,0.00174532923847,0.37959572744599995,-9.6925626993,-0.9086684882680001
1711569293848272562,0.0,-0.00349065847695,0.00174532923847,0.36726517138099996,-9.68269827244,-0.911134594985
1711569293850775242,0.0,-0.00174532923847,0.00349065847695,0.361263720581,-9.68707458561,-0.904106802214
1711569293853278160,0.0,-0.00174532923847,0.00349065847695,0.35879731234800005,-9.699406589299999,-0.891774783535
1711569293855780840,0.00174532923847,-0.00174532923847,0.00174532923847,0.35633113905599995,-9.71173741828,-0.8794439395579999
1711569293858283520,0.00174532923847,-0.00174532923847,0.0,0.35386496576399995,-9.72406824727,-0.867113095581
1711569293860786200,0.00174532923847,-0.00174532923847,0.00174532923847,0.34483741926,-9.718353804500001,-0.85970440389
1711569293863289118,0.0,-0.00349065847695,0.00174532923847,0.33250687011700003,-9.7035571725,-0.8547721782369999
1711569293865791798,0.0,-0.00349065847695,0.0,0.320177495535,-9.68876194998,-0.8498404224089999
1711569293868294477,0.00174532923847,-0.00349065847695,0.0,0.307848120954,-9.67396672746,-0.8449086665819999
1711569293870797157,0.00349065847695,-0.00174532923847,0.0,0.315888464855,-9.67614624025,-0.829792059251
1711569293873299837,0.00523598771542,0.0,0.0,0.33314958777,-9.68600972193,-0.8100650659149999
1711569293875802755,0.00523598771542,0.0,0.0,0.350412355072,-9.695874143260001,-0.790336193282
1711569293878305435,0.0,0.0,-0.00174532923847,0.36767347798699995,-9.70573762494,-0.770609199947
1711569293880808115,0.0,-0.00174532923847,-0.00349065847695,0.386690844741,-9.71209241271,-0.76316391766
1711569293883310795,0.0,-0.00174532923847,-0.00349065847695,0.40642020859399997,-9.71702474431,-0.760697751862
1711569293885813713,0.0,-0.00174532923847,0.0,0.426151451972,-9.72195754578,-0.758231351125
1711569293888316393,0.0,-0.00174532923847,0.0,0.445880815826,-9.72688987738,-0.755765185327
1711569293890819073,0.0,-0.00174532923847,0.0,0.44385392564,-9.71913119911,-0.7569250409639999
1711569293893321753,0.0,0.0,0.0,0.433989483785,-9.70680066552,-0.75939114768
1711569293895824432,-0.00174532923847,0.0,0.0,0.424125041931,-9.69447013194,-0.761857254396
1711569293898327351,0.0,-0.00174532923847,0.0,0.41425966033699996,-9.682138423689999,-0.764323596047
1711569293900830030,0.0,-0.00174532923847,0.0,0.41562134236500003,-9.681033996930001,-0.757434602371
1711569293903332710,0.00174532923847,-0.00174532923847,0.0,0.42055356329300003,-9.68350010365,-0.747570160517
1711569293905835390,0.0,0.0,0.0,0.42548578422,-9.68596621036,-0.737705718662
1711569293908338308,0.0,0.0,0.0,0.430418475017,-9.688432552010001,-0.727840337069
1711569293910840988,-0.00174532923847,0.0,-0.00174532923847,0.435350418682,-9.69475633605,-0.725692093372
1711569293913343668,0.0,0.0,-0.00174532923847,0.44028228515600004,-9.70215412452,-0.725692093372
1711569293915846348,0.0,0.0,0.0,0.445214151629,-9.70955191299,-0.725692093372
1711569293918349028,0.0,0.0,0.00174532923847,0.450146018103,-9.71694970146,-0.725692093372
1711569293920851946,-0.00174532923847,0.0,0.00349065847695,0.443161159465,-9.70845860971,-0.7415815597579999
1711569293923354626,-0.00174532923847,0.0,0.00174532923847,0.43329766279799997,-9.69612925761,-0.761308553093
1711569293925858498,-0.00174532923847,0.0,0.0,0.42342946788400004,-9.68379403271,-0.7810449429199999
1711569293928360224,0.0,0.0,0.0,0.41356972981299994,-9.67146937885,-0.800764419062
1711569293930863142,0.0,0.0,0.00174532923847,0.411879301071,-9.679573840069999,-0.808232286544
1711569293933365822,0.0,-0.00174532923847,0.00174532923847,0.411879301071,-9.69190319217,-0.813164042372
1711569293935868502,-0.00174532923847,-0.00349065847695,0.00349065847695,0.411879301071,-9.704232544269999,-0.818095798199
1711569293938371181,-0.00523598771542,0.0,0.00523598771542,0.411879301071,-9.71656189637,-0.8230275540270001
1711569293940874100,-0.00523598771542,0.0,0.00349065847695,0.41398013507700004,-9.7162886771,-0.836363618948
1711569293943377733,-0.00349065847695,0.00349065847695,0.00174532923847,0.416447240635,-9.713821571539999,-0.851166267289
1711569293945879459,0.0,0.00349065847695,0.00174532923847,0.418912466672,-9.711356345510001,-0.865957638497
1711569293948383093,0.00174532923847,0.00174532923847,0.00349065847695,0.42137957223000005,-9.70888923995,-0.880760286838
1711569293950886011,0.00174532923847,0.0,0.0069813169539,0.41520595947800004,-9.71074286527,-0.8890784343100001
1711569293953387737,0.0,0.0,0.0069813169539,0.407810443559,-9.713208032239999,-0.896473950229
1711569293955891371,0.0,-0.00174532923847,0.00523598771542,0.400409289202,-9.7156750787,-0.903875104586
1711569293958394051,-0.00174532923847,0.0,0.00349065847695,0.39301095406400005,-9.718141185419999,-0.911273439724
1711569293960896730,-0.00174532923847,0.0,0.00349065847695,0.398919332025,-9.72504285418,-0.909800637289
1711569293963399649,0.0,0.0,0.00349065847695,0.406318371968,-9.73244187913,-0.907334295638
1711569293965902328,0.00174532923847,0.0,0.00174532923847,0.41371670710600006,-9.73984019928,-0.9048681889219999
1711569293968405008,0.0,0.0,0.00174532923847,0.421115042244,-9.74723851943,-0.9024020822050001
1711569293970907688,0.0,0.0,0.00523598771542,0.39665378352700004,-9.71595036222,-0.924968275748
1711569293973410606,-0.00349065847695,-0.00349065847695,0.00523598771542,0.369525930077,-9.68142406051,-0.949629949801
1711569293975913286,-0.00349065847695,-0.00349065847695,0.00349065847695,0.342400660725,-9.64690104766,-0.974289274675
1711569293978415966,0.0,-0.00174532923847,0.0,0.315275391373,-9.6123780348,-0.9989485995499999
1711569293980918646,0.00349065847695,0.0,0.0,0.334809020212,-9.650176249680001,-0.960618703114
1711569293983421326,0.0069813169539,0.00174532923847,0.00349065847695,0.357001891461,-9.69209628662,-0.918698846023
1711569293985924244,0.00523598771542,0.0,0.00523598771542,0.379196876921,-9.73402031709,-0.8767749954240001
1711569293988426924,0.0,-0.00174532923847,0.00349065847695,0.40138974817,-9.77594035403,-0.834855138333
1711569293990929604,-0.00349065847695,-0.00523598771542,0.0,0.397293101234,-9.75811191125,-0.850293618408
1711569293993432283,-0.00349065847695,-0.00523598771542,0.0,0.39236182540299996,-9.73838659812,-0.867553087563
1711569293995935202,0.0,-0.00174532923847,0.0,0.387430079792,-9.71865940585,-0.8848142009469999
1711569293998437881,0.00349065847695,0.0,0.0,0.382498803961,-9.69893409272,-0.9020736701019999
1711569294000940561,0.00523598771542,0.00174532923847,0.00174532923847,0.36044195528899997,-9.69388350067,-0.880194390691
1711569294003443241,0.00523598771542,0.0,0.00174532923847,0.338246957369,-9.68895128724,-0.857999385277
1711569294005946159,0.0,0.0,0.0,0.31604984503600003,-9.68401860393,-0.835802265449
1711569294008449078,0.0,0.0,-0.00174532923847,0.294815921204,-9.67947119095,-0.813605170775
1711569294010951757,0.0,0.0,-0.00523598771542,0.334270860488,-9.699198626869999,-0.7914117753899998
1711569294013454437,0.0,0.00174532923847,-0.00523598771542,0.373725799772,-9.718926062789999,-0.769218380005
1711569294015957117,0.00174532923847,0.0,-0.00349065847695,0.413180739055,-9.7386534987,-0.74702498462
1711569294018460035,0.00174532923847,0.0,0.0,0.450530772007,-9.75694507036,-0.726458920519
1711569294020962715,0.0,-0.00174532923847,0.0,0.435734101731,-9.73968232334,-0.746187804227
1711569294023465395,-0.00174532923847,-0.00174532923847,0.0,0.42093743145499996,-9.722419576330001,-0.765916687936
1711569294025968075,-0.00174532923847,-0.00174532923847,-0.00174532923847,0.406140761179,-9.70515682931,-0.7856455716449999
1711569294028470755,0.0,0.0,-0.00349065847695,0.392265975475,-9.68896961212,-0.8027625831199999
1711569294030973673,0.00174532923847,0.0,-0.00349065847695,0.392265975475,-9.68896961212,-0.7805676051549999
1711569294033476353,0.00349065847695,0.0,-0.00174532923847,0.392265975475,-9.68896961212,-0.758374741399
1711569294035979033,0.00174532923847,0.00174532923847,0.0,0.392265975475,-9.68896961212,-0.736181877644
1711569294038481712,0.0,0.00174532923847,-0.00174532923847,0.393530304274,-9.6893910542,-0.715885460377
1711569294040984631,0.0,0.00349065847695,-0.00349065847695,0.408327320697,-9.694323383019999,-0.715885460377
1711569294043487310,0.0,0.00174532923847,-0.00174532923847,0.42312292761299997,-9.699255242000001,-0.715885460377
1711569294045989990,0.00174532923847,0.00174532923847,-0.00174532923847,0.437918534528,-9.70418710098,-0.715885460377
1711569294048492670,0.00174532923847,0.0,0.0,0.450301883826,-9.707510868510001,-0.717761478813
1711569294050995350,-0.00174532923847,0.0,0.0,0.44290514350000004,-9.697648568060002,-0.735020519592
1711569294053498268,-0.00523598771542,0.0,0.0,0.435507698522,-9.68778532807,-0.7522812045589999
1711569294056000948,-0.00523598771542,0.0,0.0,0.42811095819600004,-9.677923027610001,-0.769540245338
1711569294058503628,-0.00174532923847,0.0,0.0,0.422657883059,-9.67162422252,-0.784531950951
1711569294061006308,0.0,0.0,0.0,0.430056395441,-9.688887383099999,-0.784531950951
1711569294063509226,0.0,0.0,0.00174532923847,0.437455612645,-9.70615218826,-0.784531950951
1711569294066011906,0.0,0.0,0.00174532923847,0.444854125027,-9.72341534885,-0.784531950951
1711569294068514585,-0.00174532923847,0.0,0.0,0.44957708356200005,-9.735709566939999,-0.7887361788680001
1711569294071017265,-0.00523598771542,-0.00174532923847,0.0,0.43971358689499995,-9.720914344419999,-0.815860813438
1711569294073519945,-0.00523598771542,-0.00349065847695,0.0,0.429850090227,-9.7061191219,-0.842985448009
1711569294076022863,-0.00349065847695,-0.00349065847695,0.0,0.41998565391000003,-9.69132248991,-0.870112666616
1711569294078525543,0.0,-0.00174532923847,0.0,0.412318586361,-9.68223797615,-0.8910872937819999
1711569294081028223,0.00174532923847,0.0,0.00174532923847,0.41478445678099995,-9.699499069089999,-0.883689667534
1711569294083530903,0.00174532923847,0.0,0.00174532923847,0.417250327201,-9.71676016203,-0.876292041287
1711569294086033821,0.0,0.0,0.00349065847695,0.41971643253300006,-9.734022899360001,-0.868893710302
1711569294088536739,-0.00174532923847,0.0,0.00349065847695,0.421189318373,-9.74482971593,-0.86695812532
1711569294091039419,-0.00523598771542,0.0,0.00349065847695,0.41872338888300004,-9.73003413899,-0.886685591214
1711569294093542099,-0.00523598771542,0.0,0.00349065847695,0.416257459393,-9.71523856205,-0.9064130571089999
1711569294096044779,-0.00349065847695,-0.00174532923847,0.00349065847695,0.413791529903,-9.70044298511,-0.9261405230040001
1711569294098547697,0.0,0.0,0.00349065847695,0.40633953710000004,-9.686753710569999,-0.9419923522910001
1711569294101051331,0.0,0.0,0.00523598771542,0.381669027575,-9.676885524760001,-0.9444593987450001
1711569294103554010,0.00174532923847,0.0,0.00523598771542,0.357007915444,-9.667021097889998,-0.9469255054610001
1711569294106055737,0.0,-0.00349065847695,0.00523598771542,0.332356200708,-9.657160429980001,-0.94939067244
1711569294108558655,0.00174532923847,-0.00523598771542,0.00174532923847,0.318096418594,-9.65708648626,-0.9469613836059999
1711569294111061335,0.00349065847695,-0.00349065847695,0.0,0.335357541509,-9.6866771711,-0.9297002606910001
1711569294113564014,0.00349065847695,0.0,0.00349065847695,0.352618664425,-9.71626785594,-0.912439137776
1711569294116067648,0.00174532923847,0.0,0.00523598771542,0.369886364885,-9.745869816639999,-0.895171437315
1711569294118569374,0.0,-0.00174532923847,0.00523598771542,0.3817904661,-9.763410318630001,-0.884605086828
1711569294121073246,0.0,-0.00174532923847,0.00174532923847,0.379323118103,-9.7486060357,-0.892007123318
1711569294123574972,0.0,-0.00174532923847,0.0,0.376857884574,-9.73381443974,-0.899402816414
1711569294126078606,0.0,-0.00174532923847,0.0,0.374390771519,-9.71901156647,-0.906804148082
1711569294128580332,0.00174532923847,-0.00174532923847,0.0,0.366835136869,-9.707128494620001,-0.9069280672460001
1711569294131083250,0.00174532923847,-0.00349065847695,0.00174532923847,0.34710248276600003,-9.70219533859,-0.8896619911579999
1711569294133585930,0.0,-0.00523598771542,0.00174532923847,0.327371708321,-9.69726265247,-0.872397559771
1711569294136089563,-0.00174532923847,-0.00349065847695,0.0,0.307633415242,-9.6923280867,-0.855126549578
1711569294138592243,-0.00174532923847,-0.00174532923847,0.0,0.303644103615,-9.69211780891,-0.83707546499
1711569294141093969,0.0,0.0,0.0,0.33322686850600003,-9.70197871306,-0.817353626724
1711569294143597841,0.0,0.0,-0.00174532923847,0.362835006967,-9.71184807505,-0.797614872748
1711569294146100521,0.00174532923847,-0.00174532923847,-0.00174532923847,0.392429049,-9.721712738239999,-0.7778855163889999
1711569294148603201,0.0,-0.00523598771542,-0.00349065847695,0.414415246635,-9.72735082977,-0.763228051158
1711569294151105881,0.0,-0.00523598771542,-0.00349065847695,0.42181375152199996,-9.72488466397,-0.758295704574
1711569294153608799,-0.00174532923847,-0.00349065847695,-0.00523598771542,0.429212961231,-9.722418263239998,-0.753362888108
1711569294156111479,-0.00174532923847,-0.00174532923847,-0.00349065847695,0.436611466118,-9.71995209744,-0.748430541523
1711569294158614159,-0.00174532923847,0.0,-0.00174532923847,0.435878524016,-9.7147757127,-0.7462088144560001
1711569294161116838,0.0,0.0,0.0,0.421083633417,-9.704912467289999,-0.7486746407960001
1711569294163619518,0.0,0.0,-0.00174532923847,0.406288742819,-9.695049221880002,-0.7511404671359999
1711569294166122675,0.0,-0.00174532923847,-0.00174532923847,0.39149103334,-9.68518409722,-0.753606763292
1711569294168625355,0.0,-0.00174532923847,-0.00174532923847,0.388223370641,-9.68012364903,-0.7522300364229999
1711569294171128035,0.0,-0.00174532923847,-0.00349065847695,0.40302038791100003,-9.68258981482,-0.7448315240410001
1711569294173630714,0.0,0.0,-0.00174532923847,0.41781740518,-9.68505598062,-0.7374330116590001
1711569294176133633,0.0,0.0,0.0,0.432615832092,-9.68752238136,-0.730033794456
1711569294178636312,0.0,0.0,0.0,0.443336907758,-9.69202612432,-0.726710930773
1711569294181138992,0.0,0.00174532923847,0.0,0.44826877423199996,-9.69942391279,-0.729176860263
1711569294183641672,0.0,0.00174532923847,-0.00174532923847,0.453200640706,-9.70682170126,-0.731642789753
1711569294186144352,0.0,0.00174532923847,-0.00174532923847,0.45813250718000004,-9.71421948973,-0.734108719243
1711569294188647270,0.0,0.0,0.0,0.45445588148599997,-9.71516119393,-0.745183697526
1711569294191149950,-0.00174532923847,0.0,0.00174532923847,0.43966099088699995,-9.70776375987,-0.767376044665
1711569294193652630,-0.00349065847695,-0.00174532923847,0.00349065847695,0.42486610028800004,-9.70036632581,-0.789568391803
1711569294196155310,-0.00174532923847,-0.00523598771542,0.00174532923847,0.410071209689,-9.692968891749999,-0.811760738942
1711569294198658228,0.0,-0.00523598771542,0.00174532923847,0.403205649045,-9.69350164144,-0.8226255879269999
1711569294201160908,0.00174532923847,-0.00349065847695,0.00174532923847,0.405671586029,-9.703365359400001,-0.8201596434489999
1711569294203663588,0.0,-0.00174532923847,0.00174532923847,0.408137523013,-9.713229077360001,-0.8176936989720001
1711569294206166267,0.0,-0.00174532923847,0.00174532923847,0.41060345999700004,-9.72309279532,-0.815227754494
1711569294208668947,0.0,-0.00349065847695,0.00174532923847,0.416640019604,-9.72700596628,-0.8210929909579999
1711569294211171865,-0.00174532923847,-0.00349065847695,0.0,0.426505401197,-9.724539624630001,-0.835891070843
1711569294213674545,0.0,-0.00349065847695,0.0,0.43636984305200005,-9.72207351791,-0.850687741119
1711569294216177225,0.0,-0.00174532923847,0.00174532923847,0.446234284906,-9.7196074112,-0.865484411396
1711569294218679905,0.0,-0.00174532923847,0.00349065847695,0.442369268285,-9.710900988939999,-0.8802803640700001
1711569294221182585,-0.00174532923847,-0.00349065847695,0.00523598771542,0.425108145369,-9.696105766419999,-0.895075616565
1711569294223685503,0.0,-0.00349065847695,0.00523598771542,0.40784537806800003,-9.68130913442,-0.909872278535
1711569294226188183,0.0,-0.00349065847695,0.00523598771542,0.39058425515199996,-9.666513911900001,-0.9246675310299999
1711569294228690863,0.00349065847695,-0.00349065847695,0.00523598771542,0.386375331314,-9.67521376368,-0.921189104372
1711569294231193542,0.00349065847695,-0.00349065847695,0.0069813169539,0.393773843696,-9.704807993080001,-0.9014597330230001
1711569294233696461,0.0,-0.00349065847695,0.00523598771542,0.40117306090000004,-9.73440504178,-0.88172848215
1711569294236199141,-0.00174532923847,-0.00349065847695,0.00174532923847,0.408571573281,-9.76399927118,-0.861999110802
1711569294238701820,-0.0069813169539,-0.00349065847695,0.00174532923847,0.400970804878,-9.75404961977,-0.8777226206730001
1711569294241204500,-0.0104719754308,-0.00174532923847,0.00523598771542,0.38124191367399995,-9.71212556577,-0.922112631501
1711569294243707180,-0.008726646192370001,-0.00349065847695,0.0069813169539,0.36151302247100003,-9.67020151177,-0.9665026423299999
1711569294246210098,-0.00349065847695,-0.00523598771542,0.00523598771542,0.34178225178800004,-9.628273463860001,-1.01089688199
1711569294248712778,0.00349065847695,-0.00349065847695,0.00174532923847,0.33911204104000003,-9.6318388393,-0.9970040124439999
1711569294251215458,0.008726646192370001,-0.00174532923847,0.00174532923847,0.34897577398699997,-9.66882778165,-0.940287529261
1711569294253718376,0.008726646192370001,-0.00174532923847,0.00349065847695,0.358840446606,-9.70582024776,-0.883565642965
1711569294256221294,0.00349065847695,-0.00349065847695,0.00349065847695,0.368705119225,-9.74281271387,-0.8268437566689999
1711569294258723974,0.0,-0.00523598771542,0.00174532923847,0.371173674236,-9.750221015860001,-0.815977338092
1711569294261226654,-0.00349065847695,-0.00349065847695,0.0,0.368707803816,-9.737891663760001,-0.8357043314270001
1711569294263729334,-0.00174532923847,0.0,0.0,0.366241933396,-9.725562311660001,-0.855431324762
1711569294266232014,0.0,0.00174532923847,0.0,0.363776062976,-9.71323295956,-0.875158318098
1711569294268734932,0.00174532923847,0.0,0.0,0.356701092386,-9.70397416939,-0.87491726918
1711569294271237612,0.00349065847695,0.0,-0.00174532923847,0.34683665053199997,-9.696575849239998,-0.862586720609
1711569294273740292,0.00349065847695,-0.00174532923847,-0.00174532923847,0.336972208677,-9.68917752909,-0.850256172038
1711569294276242971,0.00349065847695,-0.00349065847695,-0.00174532923847,0.327107766823,-9.68177920894,-0.837925623467
1711569294278745651,0.00523598771542,-0.00174532923847,-0.00174532923847,0.34434039123099996,-9.69510228969,-0.808062537807
1711569294281248569,0.00523598771542,0.0,-0.00349065847695,0.37640058099,-9.719764173589999,-0.7686038323409999
1711569294283751249,0.00349065847695,0.00174532923847,-0.00523598771542,0.40845771681599996,-9.744423708300001,-0.729148885564
1711569294286253929,0.0,0.0,-0.00349065847695,0.44051485264300005,-9.769083242999999,-0.689693938786
1711569294288756609,-0.00523598771542,0.0,0.0,0.441198934604,-9.752462757230001,-0.7014262043199999
1711569294291259527,-0.008726646192370001,-0.00349065847695,0.0,0.42640262707099996,-9.71547182352,-0.738416973153
1711569294293762207,-0.0069813169539,-0.00349065847695,-0.00174532923847,0.411607728979,-9.67848441343,-0.7754042183840001
1711569294296264887,-0.00174532923847,-0.00349065847695,-0.00349065847695,0.396812830886,-9.64149700334,-0.8123914636149999
1711569294298768520,0.00174532923847,0.0,-0.00349065847695,0.397393061324,-9.64209299022,-0.8015412335940001
1711569294301271439,0.00523598771542,0.0,0.0,0.404791569536,-9.65935614108,-0.76948103634
1711569294303773165,0.00523598771542,0.0,0.0,0.412186553977,-9.67661106981,-0.737436108755
1711569294306275845,0.0,-0.00174532923847,0.0,0.419584357434,-9.693872576239999,-0.7053789654350001
1711569294308778524,0.0,0.0,-0.00349065847695,0.430513822874,-9.70407296874,-0.699803294596
1711569294311281204,0.0,0.0,-0.00523598771542,0.44284467434600006,-9.711471466139999,-0.7047356411810001
1711569294313785076,0.0,0.00349065847695,-0.00349065847695,0.45518139932999996,-9.71887348763,-0.709670337173
1711569294316287756,0.00174532923847,0.00349065847695,-0.00349065847695,0.467512250801,-9.72627198502,-0.714602683757
1711569294318789482,0.0,0.00174532923847,-0.00174532923847,0.45977744443499996,-9.70995993179,-0.735945327179
1711569294321292162,0.0,0.0,-0.00174532923847,0.444982199433,-9.68530122759,-0.763069946762
1711569294323795795,-0.00174532923847,0.0,0.0,0.43018131653700004,-9.660633126910001,-0.7902049024869999
1711569294326297760,0.0,0.0,0.0,0.415390299956,-9.63598147007,-0.817321769963
1711569294328801632,0.00174532923847,0.0,0.0,0.41564342623499995,-9.65271453082,-0.81246622093
1711569294331304312,0.00349065847695,0.0,0.00174532923847,0.42057564716300005,-9.68230781141,-0.797669550654
1711569294333806992,0.0,-0.00174532923847,0.00523598771542,0.42550786809,-9.71190109201,-0.782872880378
1711569294336309910,-0.00349065847695,-0.00523598771542,0.00349065847695,0.430440558887,-9.741497191819999,-0.7680748004919999
1711569294338812590,-0.008726646192370001,-0.008726646192370001,0.00349065847695,0.43149259686499997,-9.736169715479999,-0.788198109561
1711569294341315269,-0.008726646192370001,-0.0069813169539,0.0,0.43149259686499997,-9.72137413854,-0.8177893084029999
1711569294343817949,-0.00523598771542,-0.00349065847695,0.0,0.43149259686499997,-9.706578561599999,-0.847380507245
1711569294346320629,0.0,0.0,0.0,0.43149259686499997,-9.691782984660001,-0.876971706087
1711569294348823547,0.00174532923847,0.0,0.0,0.43149259686499997,-9.69296443718,-0.882598459721
1711569294351326227,0.00174532923847,-0.00174532923847,0.00349065847695,0.43149259686499997,-9.697896650610002,-0.882598459721
1711569294353828907,0.0,-0.00523598771542,0.00523598771542,0.43149259686499997,-9.702828864039999,-0.882598459721
1711569294356331587,-0.00174532923847,-0.00523598771542,0.00523598771542,0.43149259686499997,-9.70776107748,-0.882598459721
1711569294358834267,-0.00174532923847,-0.00174532923847,0.00523598771542,0.42943777803499994,-9.71474731587,-0.8867080973810001
1711569294361337185,0.0,0.0,0.00349065847695,0.426971901482,-9.722144923039998,-0.891639850485
1711569294363839865,0.00174532923847,0.00174532923847,0.00523598771542,0.42450625982,-9.72954182555,-0.896571133809
1711569294366342545,0.0,0.0,0.00523598771542,0.42204061815800004,-9.736938728060002,-0.9015024171330001
1711569294368845224,0.0,0.0,0.00523598771542,0.40268370044699997,-9.71055515266,-0.923325368246
1711569294371348143,-0.00174532923847,-0.00174532923847,0.00523598771542,0.38048658811399994,-9.6784927112,-0.947988814735
1711569294373850822,-0.00174532923847,-0.00523598771542,0.00349065847695,0.35829159019400003,-9.64643332388,-0.972649911877
1711569294376353502,0.0,-0.00523598771542,0.0,0.33609659227399996,-9.614373936569999,-0.9973110090180001
1711569294378856182,0.00523598771542,-0.00523598771542,0.0,0.35077995008100005,-9.651732103039999,-0.961232066437
1711569294381358862,0.008726646192370001,-0.00174532923847,0.00174532923847,0.37050742346999993,-9.698585003160002,-0.916845275668
1711569294383861780,0.0069813169539,0.0,0.00523598771542,0.390236776203,-9.74544236673,-0.872454256377
1711569294386364460,0.0,-0.00349065847695,0.00523598771542,0.40996424959100003,-9.792295266839998,-0.828067465608
1711569294388867140,-0.00523598771542,-0.00523598771542,0.00349065847695,0.400746538224,-9.77012473011,-0.848250676347
1711569294391369820,-0.00523598771542,-0.00523598771542,0.0,0.38841686829300004,-9.74053333642,-0.875375945699
1711569294393872499,-0.00174532923847,-0.00349065847695,0.0,0.37608719836099996,-9.71094194274,-0.902501215051
1711569294396375418,0.00174532923847,0.0,0.0,0.36375635384000005,-9.68134773002,-0.9296290685009999
1711569294398878098,0.00523598771542,0.0,0.00174532923847,0.34686123768,-9.6814465193,-0.908796300487
1711569294401380777,0.00523598771542,-0.00349065847695,0.00174532923847,0.329602181915,-9.683912094419998,-0.8841405043970001
1711569294403883457,0.00174532923847,-0.00523598771542,0.00174532923847,0.312343126151,-9.686377669530001,-0.859484708307
1711569294406386375,0.0,-0.00523598771542,0.0,0.295082426197,-9.68884347953,-0.834826563375
1711569294408889055,0.00174532923847,-0.00174532923847,0.0,0.3292962349,-9.70300828472,-0.810167404803
1711569294411391735,0.00349065847695,0.0,0.0,0.3662852372,-9.71780386166,-0.78550806494
1711569294413894415,0.00349065847695,0.0,0.0,0.4032742395,-9.7325994386,-0.7608487250779999
1711569294416397333,0.00174532923847,0.0,-0.00174532923847,0.440266765568,-9.74739642505,-0.7361870360349999
1711569294418900251,0.0,0.0,-0.00349065847695,0.43650467029600004,-9.73102847712,-0.747485121636
1711569294421402931,-0.00174532923847,0.0,-0.00349065847695,0.431572921962,-9.71376738418,-0.759814488724
1711569294423905611,-0.00174532923847,0.0,-0.00349065847695,0.426641173628,-9.69650629124,-0.7721438558120001
1711569294426408291,0.0,0.0,-0.00349065847695,0.42170942529399996,-9.6792451983,-0.784473222899
1711569294428910971,0.0,0.0,-0.00174532923847,0.411869419854,-9.67916297913,-0.774715436738
1711569294431413889,0.0,-0.00174532923847,-0.00174532923847,0.40200498353799996,-9.67916297913,-0.764851000421
1711569294433916569,-0.00174532923847,-0.00349065847695,0.0,0.39214148687,-9.67916297913,-0.754987503754
1711569294436419249,-0.00349065847695,-0.00523598771542,-0.00174532923847,0.38282208179099997,-9.67934434851,-0.7450786473630001
1711569294438921928,-0.00174532923847,-0.00349065847695,-0.00349065847695,0.40255096549999997,-9.68920877537,-0.732748098792
1711569294441424847,0.00174532923847,-0.00174532923847,-0.00523598771542,0.422281728688,-9.69907414197,-0.720416375547
1711569294443927526,0.00523598771542,0.0,-0.00349065847695,0.44201061239699996,-9.708938568839999,-0.7080858269760001
1711569294446430206,0.00523598771542,0.0,-0.00174532923847,0.460395706422,-9.71776932878,-0.697305773872
1711569294448932886,0.00174532923847,0.0,0.0,0.44806604398500005,-9.70297375185,-0.7219651137340001
1711569294451435566,-0.00174532923847,0.0,0.0,0.435736381548,-9.68817817491,-0.7466244535969999
1711569294453939438,-0.00523598771542,-0.00174532923847,0.0,0.42340084616499996,-9.67337555044,-0.771295539358
1711569294456441164,-0.00349065847695,-0.00174532923847,0.0,0.411879301071,-9.660513791649999,-0.793856603315
1711569294458943844,0.0,0.0,0.00349065847695,0.411879301071,-9.675309014169999,-0.7864589770679999
1711569294461446524,0.0,0.0,0.00523598771542,0.411879301071,-9.690104236689999,-0.77906135082
1711569294463949203,0.0,0.0,0.00349065847695,0.411879301071,-9.70489945921,-0.771663724572
1711569294466452122,0.0,0.0,0.00174532923847,0.412532591781,-9.71795398441,-0.7664430310529999
1711569294468954802,-0.00174532923847,0.0,0.0,0.41993021053499996,-9.71302224357,-0.783704153968
1711569294471457481,-0.00174532923847,-0.00174532923847,0.0,0.42732782928900004,-9.70809050273,-0.800965276884
1711569294473961115,0.0,-0.00174532923847,0.0,0.43472826698899997,-9.70315688259,-0.818232977344
1711569294476462841,0.0,0.0,0.00174532923847,0.44047570855499996,-9.699050751939998,-0.834937770925
1711569294478965759,0.0,0.0,0.00349065847695,0.43308021953599996,-9.70151591245,-0.8472635884540001
1711569294481469870,0.0,0.0,0.00174532923847,0.425681208184,-9.70398224707,-0.8595952765389999
1711569294483974934,-0.00349065847695,0.0,0.00174532923847,0.418279378966,-9.70644952098,-0.871931661068
1711569294486479044,-0.00349065847695,0.0,0.00174532923847,0.411213455691,-9.709248721469999,-0.8832643051010001
